subject_id,stimulus,trial_type,time_elapsed,gender,age,language,country,sampling,turkcode,nb_of_run,rt,responses,stim_type,rolled_OR_unrolled,A_branch_loc,A_detectors,state_OR_event,state_branch,root_1st,imdt_2nd,node_selected
1,instruction,causal-graph1,25164,male,48,English,United States of America,Right,R562290197760gxrw,,,,,,,,,,,,
1,instruction,causal-graph1,42649,male,48,English,United States of America,Right,R562290197760gxrw,,,,,,,,,,,,
1,instruction,causal-graph1,90566,male,48,English,United States of America,Right,R562290197760gxrw,1.0,,,,,,,,,,,
1,instruction,causal-graph1,97178,male,48,English,United States of America,Right,R562290197760gxrw,,,,,,,,,,,,
1,instruction,causal-graph1,108337,male,48,English,United States of America,Right,R562290197760gxrw,,,,,,,,,,,,
1,instruction,causal-graph1,122823,male,48,English,United States of America,Right,R562290197760gxrw,1.0,,,,,,,,,,,
1,instruction,causal-graph1,126838,male,48,English,United States of America,Right,R562290197760gxrw,,,,,,,,,,,,
1,instruction,causal-graph1,155260,male,48,English,United States of America,Right,R562290197760gxrw,1.0,,,,,,,,,,,
1,instruction,causal-graph3,189519,male,48,English,United States of America,Right,R562290197760gxrw,1.0,,,,,,,,,,,
1,instruction,causal-graph1,192044,male,48,English,United States of America,Right,R562290197760gxrw,,,,,,,,,,,,
1,instruction,causal-graph1,202829,male,48,English,United States of America,Right,R562290197760gxrw,,,,,,,,,,,,
1,instruction,causal-graph1,223361,male,48,English,United States of America,Right,R562290197760gxrw,,,,,,,,,,,,
1,instruction,survey-multi-choice,264622,male,48,English,United States of America,Right,R562290197760gxrw,,,"{""Q0"":"" To find out if the Gauge of Critical Moment (G) is activated or not"",""Q1"":"" A detector becomes active if it absorbs a radioactive particle"",""Q2"":"" G becomes active if it absorbs a radioactive particle"",""Q3"":"" Round detectors maintain their activation over time but square detectors do not""}",,,,,,,,,
1,instruction,causal-graph1,268139,male,48,English,United States of America,Right,R562290197760gxrw,,,,,,,,,,,,
1,instruction,causal-graph1,270474,male,48,English,United States of America,Right,R562290197760gxrw,,,,,,,,,,,,
1,instruction,causal-graph1,273402,male,48,English,United States of America,Right,R562290197760gxrw,,,,,,,,,,,,
1,instruction,causal-graph1,346874,male,48,English,United States of America,Right,R562290197760gxrw,1.0,,,,,,,,,,,
1,instruction,causal-graph1,353384,male,48,English,United States of America,Right,R562290197760gxrw,,,,,,,,,,,,
1,instruction,causal-graph1,359198,male,48,English,United States of America,Right,R562290197760gxrw,,,,,,,,,,,,
1,instruction,causal-graph1,368645,male,48,English,United States of America,Right,R562290197760gxrw,1.0,,,,,,,,,,,
1,instruction,causal-graph1,375220,male,48,English,United States of America,Right,R562290197760gxrw,,,,,,,,,,,,
1,instruction,causal-graph1,389780,male,48,English,United States of America,Right,R562290197760gxrw,1.0,,,,,,,,,,,
1,instruction,causal-graph3,465794,male,48,English,United States of America,Right,R562290197760gxrw,1.0,,,,,,,,,,,
1,instruction,causal-graph1,514099,male,48,English,United States of America,Right,R562290197760gxrw,,,,,,,,,,,,
1,instruction,causal-graph1,517936,male,48,English,United States of America,Right,R562290197760gxrw,,,,,,,,,,,,
1,instruction,causal-graph1,520920,male,48,English,United States of America,Right,R562290197760gxrw,,,,,,,,,,,,
1,instruction,survey-multi-choice,553917,male,48,English,United States of America,Right,R562290197760gxrw,,,"{""Q0"":"" To decide what caused the activation of G"",""Q1"":"" A detector becomes active if it absorbs a radioactive particle"",""Q2"":"" G becomes active if it absorbs a radioactive particle"",""Q3"":"" Square detectors maintain their activation over time but round detectors do not""}",,,,,,,,,
1,instruction,causal-graph1,556508,male,48,English,United States of America,Right,R562290197760gxrw,,,,,,,,,,,,
1,instruction,causal-graph1,558011,male,48,English,United States of America,Right,R562290197760gxrw,,,,,,,,,,,,
1,instruction,causal-graph1,559716,male,48,English,United States of America,Right,R562290197760gxrw,,,,,,,,,,,,
1,instruction,causal-graph1,571668,male,48,English,United States of America,Right,R562290197760gxrw,1.0,,,,,,,,,,,
1,instruction,causal-graph1,574836,male,48,English,United States of America,Right,R562290197760gxrw,,,,,,,,,,,,
1,instruction,causal-graph1,580914,male,48,English,United States of America,Right,R562290197760gxrw,,,,,,,,,,,,
1,instruction,causal-graph1,589440,male,48,English,United States of America,Right,R562290197760gxrw,1.0,,,,,,,,,,,
1,instruction,causal-graph1,616028,male,48,English,United States of America,Right,R562290197760gxrw,,,,,,,,,,,,
1,instruction,causal-graph1,629684,male,48,English,United States of America,Right,R562290197760gxrw,1.0,,,,,,,,,,,
1,instruction,causal-graph3,637419,male,48,English,United States of America,Right,R562290197760gxrw,1.0,,,,,,,,,,,
1,instruction,causal-graph1,639825,male,48,English,United States of America,Right,R562290197760gxrw,,,,,,,,,,,,
1,instruction,causal-graph1,643715,male,48,English,United States of America,Right,R562290197760gxrw,,,,,,,,,,,,
1,instruction,causal-graph1,645376,male,48,English,United States of America,Right,R562290197760gxrw,,,,,,,,,,,,
1,instruction,survey-multi-choice,680440,male,48,English,United States of America,Right,R562290197760gxrw,,,"{""Q0"":"" To decide what caused the activation of G"",""Q1"":"" A detector becomes active if it absorbs a radioactive particle or receives input from an active detector"",""Q2"":"" G becomes active if at least one of its inputs is active"",""Q3"":"" Square detectors maintain their activation over time but round detectors do not""}",,,,,,,,,
1,instruction,causal-graph1,682740,male,48,English,United States of America,Right,R562290197760gxrw,,,,,,,,,,,,
1,instruction,causal-graph1,686915,male,48,English,United States of America,Right,R562290197760gxrw,,,,,,,,,,,,
1,instruction,causal-graph1,690698,male,48,English,United States of America,Right,R562290197760gxrw,,,,,,,,,,,,
1,instruction,causal-graph1,707416,male,48,English,United States of America,Right,R562290197760gxrw,1.0,,,,,,,,,,,
1,instruction,causal-graph1,712823,male,48,English,United States of America,Right,R562290197760gxrw,,,,,,,,,,,,
1,instruction,causal-graph1,720405,male,48,English,United States of America,Right,R562290197760gxrw,,,,,,,,,,,,
1,instruction,causal-graph1,731061,male,48,English,United States of America,Right,R562290197760gxrw,1.0,,,,,,,,,,,
1,instruction,causal-graph1,736780,male,48,English,United States of America,Right,R562290197760gxrw,,,,,,,,,,,,
1,instruction,causal-graph1,751890,male,48,English,United States of America,Right,R562290197760gxrw,1.0,,,,,,,,,,,
1,instruction,causal-graph3,760723,male,48,English,United States of America,Right,R562290197760gxrw,1.0,,,,,,,,,,,
1,instruction,causal-graph1,763424,male,48,English,United States of America,Right,R562290197760gxrw,,,,,,,,,,,,
1,instruction,causal-graph1,770880,male,48,English,United States of America,Right,R562290197760gxrw,,,,,,,,,,,,
1,instruction,causal-graph1,773023,male,48,English,United States of America,Right,R562290197760gxrw,,,,,,,,,,,,
1,instruction,survey-multi-choice,811419,male,48,English,United States of America,Right,R562290197760gxrw,,,"{""Q0"":"" To decide what caused the activation of G"",""Q1"":"" A detector becomes active if it receives input from an active detector"",""Q2"":"" G becomes active if at least one of its inputs is active"",""Q3"":"" Square detectors maintain their activation over time but round detectors do not""}",,,,,,,,,
1,instruction,causal-graph1,813449,male,48,English,United States of America,Right,R562290197760gxrw,,,,,,,,,,,,
1,instruction,causal-graph1,815665,male,48,English,United States of America,Right,R562290197760gxrw,,,,,,,,,,,,
1,instruction,causal-graph1,821457,male,48,English,United States of America,Right,R562290197760gxrw,,,,,,,,,,,,
1,instruction,causal-graph1,841374,male,48,English,United States of America,Right,R562290197760gxrw,1.0,,,,,,,,,,,
1,instruction,causal-graph1,846237,male,48,English,United States of America,Right,R562290197760gxrw,,,,,,,,,,,,
1,instruction,causal-graph1,849895,male,48,English,United States of America,Right,R562290197760gxrw,,,,,,,,,,,,
1,instruction,causal-graph1,856571,male,48,English,United States of America,Right,R562290197760gxrw,1.0,,,,,,,,,,,
1,instruction,causal-graph1,860284,male,48,English,United States of America,Right,R562290197760gxrw,,,,,,,,,,,,
1,instruction,causal-graph1,874065,male,48,English,United States of America,Right,R562290197760gxrw,1.0,,,,,,,,,,,
1,instruction,causal-graph3,881290,male,48,English,United States of America,Right,R562290197760gxrw,1.0,,,,,,,,,,,
1,instruction,causal-graph1,883263,male,48,English,United States of America,Right,R562290197760gxrw,,,,,,,,,,,,
1,instruction,causal-graph1,896750,male,48,English,United States of America,Right,R562290197760gxrw,,,,,,,,,,,,
1,instruction,causal-graph1,898206,male,48,English,United States of America,Right,R562290197760gxrw,,,,,,,,,,,,
1,instruction,survey-multi-choice,920051,male,48,English,United States of America,Right,R562290197760gxrw,,,"{""Q0"":"" To decide what caused the activation of G"",""Q1"":"" A detector becomes active if it absorbs a radioactive particle"",""Q2"":"" G becomes active if all of its inputs are active"",""Q3"":"" Square detectors maintain their activation over time but round detectors do not""}",,,,,,,,,
1,instruction,causal-graph1,922692,male,48,English,United States of America,Right,R562290197760gxrw,,,,,,,,,,,,
1,instruction,causal-graph1,926242,male,48,English,United States of America,Right,R562290197760gxrw,,,,,,,,,,,,
1,instruction,causal-graph1,929697,male,48,English,United States of America,Right,R562290197760gxrw,,,,,,,,,,,,
1,instruction,causal-graph1,944401,male,48,English,United States of America,Right,R562290197760gxrw,1.0,,,,,,,,,,,
1,instruction,causal-graph1,952190,male,48,English,United States of America,Right,R562290197760gxrw,,,,,,,,,,,,
1,instruction,causal-graph1,955615,male,48,English,United States of America,Right,R562290197760gxrw,,,,,,,,,,,,
1,instruction,causal-graph1,962741,male,48,English,United States of America,Right,R562290197760gxrw,1.0,,,,,,,,,,,
1,instruction,causal-graph1,968908,male,48,English,United States of America,Right,R562290197760gxrw,,,,,,,,,,,,
1,instruction,causal-graph1,981555,male,48,English,United States of America,Right,R562290197760gxrw,1.0,,,,,,,,,,,
1,instruction,causal-graph3,991754,male,48,English,United States of America,Right,R562290197760gxrw,1.0,,,,,,,,,,,
1,instruction,causal-graph1,994177,male,48,English,United States of America,Right,R562290197760gxrw,,,,,,,,,,,,
1,instruction,causal-graph1,995945,male,48,English,United States of America,Right,R562290197760gxrw,,,,,,,,,,,,
1,instruction,causal-graph1,997944,male,48,English,United States of America,Right,R562290197760gxrw,,,,,,,,,,,,
1,instruction,survey-multi-choice,1018342,male,48,English,United States of America,Right,R562290197760gxrw,,,"{""Q0"":"" To decide what caused the activation of each detector"",""Q1"":"" A detector becomes active if it absorbs a radioactive particle"",""Q2"":"" G becomes active if all of its inputs are active"",""Q3"":"" Square detectors maintain their activation over time but round detectors do not""}",,,,,,,,,
1,instruction,causal-graph1,1034891,male,48,English,United States of America,Right,R562290197760gxrw,,,,,,,,,,,,
1,instruction,causal-graph1,1042571,male,48,English,United States of America,Right,R562290197760gxrw,,,,,,,,,,,,
1,instruction,causal-graph1,1046450,male,48,English,United States of America,Right,R562290197760gxrw,,,,,,,,,,,,
1,instruction,causal-graph1,1069983,male,48,English,United States of America,Right,R562290197760gxrw,1.0,,,,,,,,,,,
1,instruction,causal-graph1,1081837,male,48,English,United States of America,Right,R562290197760gxrw,,,,,,,,,,,,
1,instruction,causal-graph1,1094581,male,48,English,United States of America,Right,R562290197760gxrw,,,,,,,,,,,,
1,instruction,causal-graph1,1102731,male,48,English,United States of America,Right,R562290197760gxrw,1.0,,,,,,,,,,,
1,instruction,causal-graph1,1107738,male,48,English,United States of America,Right,R562290197760gxrw,,,,,,,,,,,,
1,instruction,causal-graph1,1149156,male,48,English,United States of America,Right,R562290197760gxrw,1.0,,,,,,,,,,,
1,instruction,causal-graph3,1164274,male,48,English,United States of America,Right,R562290197760gxrw,1.0,,,,,,,,,,,
1,instruction,causal-graph1,1170563,male,48,English,United States of America,Right,R562290197760gxrw,,,,,,,,,,,,
1,instruction,causal-graph1,1174401,male,48,English,United States of America,Right,R562290197760gxrw,,,,,,,,,,,,
1,instruction,causal-graph1,1176074,male,48,English,United States of America,Right,R562290197760gxrw,,,,,,,,,,,,
1,instruction,survey-multi-choice,1231730,male,48,English,United States of America,Right,R562290197760gxrw,,,"{""Q0"":"" To decide what caused the activation of G"",""Q1"":"" A detector becomes active if it absorbs a radioactive particle"",""Q2"":"" G becomes active if all of its inputs are active"",""Q3"":"" Square detectors maintain their activation over time but round detectors do not""}",,,,,,,,,
1,instruction,causal-graph1,1236729,male,48,English,United States of America,Right,R562290197760gxrw,,,,,,,,,,,,
1,instruction,causal-graph1,1242463,male,48,English,United States of America,Right,R562290197760gxrw,,,,,,,,,,,,
1,instruction,causal-graph1,1252742,male,48,English,United States of America,Right,R562290197760gxrw,,,,,,,,,,,,
1,instruction,causal-graph1,1272349,male,48,English,United States of America,Right,R562290197760gxrw,1.0,,,,,,,,,,,
1,instruction,causal-graph1,1283921,male,48,English,United States of America,Right,R562290197760gxrw,,,,,,,,,,,,
1,instruction,causal-graph1,1292352,male,48,English,United States of America,Right,R562290197760gxrw,,,,,,,,,,,,
1,instruction,causal-graph1,1301503,male,48,English,United States of America,Right,R562290197760gxrw,1.0,,,,,,,,,,,
1,instruction,causal-graph1,1308318,male,48,English,United States of America,Right,R562290197760gxrw,,,,,,,,,,,,
1,instruction,causal-graph1,1341538,male,48,English,United States of America,Right,R562290197760gxrw,1.0,,,,,,,,,,,
1,instruction,causal-graph3,1349578,male,48,English,United States of America,Right,R562290197760gxrw,1.0,,,,,,,,,,,
1,instruction,causal-graph1,1362679,male,48,English,United States of America,Right,R562290197760gxrw,,,,,,,,,,,,
1,instruction,causal-graph1,1366495,male,48,English,United States of America,Right,R562290197760gxrw,,,,,,,,,,,,
1,instruction,causal-graph1,1367808,male,48,English,United States of America,Right,R562290197760gxrw,,,,,,,,,,,,
1,instruction,survey-multi-choice,1395061,male,48,English,United States of America,Right,R562290197760gxrw,,,"{""Q0"":"" To decide what caused the activation of G"",""Q1"":"" A detector becomes active if it absorbs a radioactive particle or receives input from an active detector"",""Q2"":"" G becomes active if all of its inputs are active"",""Q3"":"" Square detectors maintain their activation over time but round detectors do not""}",,,,,,,,,
1,instruction,causal-graph1,1403531,male,48,English,United States of America,Right,R562290197760gxrw,,,,,,,,,,,,
1,RBC_RB,causal-graph3,1443911,male,48,English,United States of America,Right,R562290197760gxrw,2.0,14310.860000026878,,AND_Gate,Rolled,Bottom,Circles,State,B,,A,nodeB7
1,UBAC_RB,causal-graph1,1458020,male,48,English,United States of America,Right,R562290197760gxrw,1.0,10611.160000029486,,AND_Gate,Unrolled,Bottom,Circles,Event,,B,A,nodeB4
1,UAAS_RB,causal-graph1,1473777,male,48,English,United States of America,Right,R562290197760gxrw,1.0,12832.374999998137,,AND_Gate,Unrolled,Bottom,Squares,Event,,A,A,nodeA7
1,UBAS_RT,causal-graph1,1487169,male,48,English,United States of America,Right,R562290197760gxrw,1.0,10878.834999981336,,AND_Gate,Unrolled,Top,Squares,Event,,B,A,nodeB4
1,UBC_RT,causal-graph1,1509372,male,48,English,United States of America,Right,R562290197760gxrw,2.0,10597.254999971485,,AND_Gate,Unrolled,Top,Circles,State,B,,A,nodeA20
1,chainS_R,causal-graph1,1522003,male,48,English,United States of America,Right,R562290197760gxrw,1.0,9929.384999966716,,ChainS,,,,,,,,nodeB9
1,UABS_RT,causal-graph1,1538865,male,48,English,United States of America,Right,R562290197760gxrw,1.0,14352.415000030305,,AND_Gate,Unrolled,Top,Squares,Event,,A,B,nodeA7
1,RAAC_RT,causal-graph3,1564823,male,48,English,United States of America,Right,R562290197760gxrw,2.0,2795.489999989513,,AND_Gate,Rolled,Top,Circles,Event,,A,A,nodeA5
1,chainC_RB,causal-graph1,1575859,male,48,English,United States of America,Right,R562290197760gxrw,1.0,8867.380000010598,,ChainC,,Bottom,,,,,,nodeA26
1,UAAC_RB,causal-graph1,1588425,male,48,English,United States of America,Right,R562290197760gxrw,1.0,10886.419999995269,,AND_Gate,Unrolled,Bottom,Circles,Event,,A,A,nodeA7
1,UBS_RT,causal-graph1,1601471,male,48,English,United States of America,Right,R562290197760gxrw,1.0,11046.465000021271,,AND_Gate,Unrolled,Top,Squares,State,B,,A,nodeA20
1,UAS_RT,causal-graph1,1614614,male,48,English,United States of America,Right,R562290197760gxrw,1.0,11017.229999997651,,AND_Gate,Unrolled,Top,Squares,State,A,,B,nodeB7
1,RBAC_RT,causal-graph3,1627493,male,48,English,United States of America,Right,R562290197760gxrw,1.0,2161.940000019968,,AND_Gate,Rolled,Top,Circles,Event,,B,A,nodeB2
1,RAC_RT,causal-graph3,1645083,male,48,English,United States of America,Right,R562290197760gxrw,1.0,1484.695000050124,,AND_Gate,Rolled,Top,Circles,State,A,,A,nodeB7
1,UBBS_RB,causal-graph1,1657385,male,48,English,United States of America,Right,R562290197760gxrw,1.0,10443.255000049248,,AND_Gate,Unrolled,Bottom,Squares,Event,,B,B,nodeB2
1,instruction,causal-graph1,1659633,male,48,English,United States of America,Right,R562290197760gxrw,,,,,,,,,,,,
1,comment,survey-text,1669823,male,48,English,United States of America,Right,R562290197760gxrw,,10171.49999999674,"{""Q0"":""Thank you for the fun task!""}",,,,,,,,,
2,instruction,causal-graph1,10011,male,26,English,United States of America,Left,R562056207610gxrw,,,,,,,,,,,,
2,instruction,causal-graph1,15906,male,26,English,United States of America,Left,R562056207610gxrw,,,,,,,,,,,,
2,instruction,causal-graph1,44307,male,26,English,United States of America,Left,R562056207610gxrw,1.0,,,,,,,,,,,
2,instruction,causal-graph1,57610,male,26,English,United States of America,Left,R562056207610gxrw,,,,,,,,,,,,
2,instruction,causal-graph1,69674,male,26,English,United States of America,Left,R562056207610gxrw,,,,,,,,,,,,
2,instruction,causal-graph1,152435,male,26,English,United States of America,Left,R562056207610gxrw,2.0,,,,,,,,,,,
2,instruction,causal-graph1,172387,male,26,English,United States of America,Left,R562056207610gxrw,,,,,,,,,,,,
2,instruction,causal-graph1,194874,male,26,English,United States of America,Left,R562056207610gxrw,1.0,,,,,,,,,,,
2,instruction,causal-graph3,211739,male,26,English,United States of America,Left,R562056207610gxrw,1.0,,,,,,,,,,,
2,instruction,causal-graph1,219859,male,26,English,United States of America,Left,R562056207610gxrw,,,,,,,,,,,,
2,instruction,causal-graph1,226098,male,26,English,United States of America,Left,R562056207610gxrw,,,,,,,,,,,,
2,instruction,causal-graph1,233843,male,26,English,United States of America,Left,R562056207610gxrw,,,,,,,,,,,,
2,instruction,survey-multi-choice,330088,male,26,English,United States of America,Left,R562056207610gxrw,,,"{""Q0"":"" To decide what caused the activation of G"",""Q1"":"" A detector becomes active if it receives input from an active detector"",""Q2"":"" G becomes active if all of its inputs are active"",""Q3"":"" Square detectors maintain their activation over time but round detectors do not""}",,,,,,,,,
2,instruction,causal-graph1,336411,male,26,English,United States of America,Left,R562056207610gxrw,,,,,,,,,,,,
2,instruction,causal-graph1,338595,male,26,English,United States of America,Left,R562056207610gxrw,,,,,,,,,,,,
2,instruction,causal-graph1,340330,male,26,English,United States of America,Left,R562056207610gxrw,,,,,,,,,,,,
2,instruction,causal-graph1,363843,male,26,English,United States of America,Left,R562056207610gxrw,1.0,,,,,,,,,,,
2,instruction,causal-graph1,365706,male,26,English,United States of America,Left,R562056207610gxrw,,,,,,,,,,,,
2,instruction,causal-graph1,368267,male,26,English,United States of America,Left,R562056207610gxrw,,,,,,,,,,,,
2,instruction,causal-graph1,379235,male,26,English,United States of America,Left,R562056207610gxrw,1.0,,,,,,,,,,,
2,instruction,causal-graph1,381570,male,26,English,United States of America,Left,R562056207610gxrw,,,,,,,,,,,,
2,instruction,causal-graph1,396410,male,26,English,United States of America,Left,R562056207610gxrw,1.0,,,,,,,,,,,
2,instruction,causal-graph3,403667,male,26,English,United States of America,Left,R562056207610gxrw,1.0,,,,,,,,,,,
2,instruction,causal-graph1,406250,male,26,English,United States of America,Left,R562056207610gxrw,,,,,,,,,,,,
2,instruction,causal-graph1,408139,male,26,English,United States of America,Left,R562056207610gxrw,,,,,,,,,,,,
2,instruction,causal-graph1,411363,male,26,English,United States of America,Left,R562056207610gxrw,,,,,,,,,,,,
2,instruction,survey-multi-choice,429652,male,26,English,United States of America,Left,R562056207610gxrw,,,"{""Q0"":"" To decide what caused the activation of G"",""Q1"":"" A detector becomes active if it absorbs a radioactive particle"",""Q2"":"" G becomes active if all of its inputs are active"",""Q3"":"" Square detectors maintain their activation over time but round detectors do not""}",,,,,,,,,
2,instruction,causal-graph1,432010,male,26,English,United States of America,Left,R562056207610gxrw,,,,,,,,,,,,
2,instruction,causal-graph1,437043,male,26,English,United States of America,Left,R562056207610gxrw,,,,,,,,,,,,
2,instruction,causal-graph1,439451,male,26,English,United States of America,Left,R562056207610gxrw,,,,,,,,,,,,
2,instruction,causal-graph1,453138,male,26,English,United States of America,Left,R562056207610gxrw,1.0,,,,,,,,,,,
2,instruction,causal-graph1,454778,male,26,English,United States of America,Left,R562056207610gxrw,,,,,,,,,,,,
2,instruction,causal-graph1,456594,male,26,English,United States of America,Left,R562056207610gxrw,,,,,,,,,,,,
2,instruction,causal-graph1,465314,male,26,English,United States of America,Left,R562056207610gxrw,1.0,,,,,,,,,,,
2,instruction,causal-graph1,473106,male,26,English,United States of America,Left,R562056207610gxrw,,,,,,,,,,,,
2,instruction,causal-graph1,490195,male,26,English,United States of America,Left,R562056207610gxrw,1.0,,,,,,,,,,,
2,instruction,causal-graph3,498906,male,26,English,United States of America,Left,R562056207610gxrw,1.0,,,,,,,,,,,
2,instruction,causal-graph1,500443,male,26,English,United States of America,Left,R562056207610gxrw,,,,,,,,,,,,
2,instruction,causal-graph1,502034,male,26,English,United States of America,Left,R562056207610gxrw,,,,,,,,,,,,
2,instruction,causal-graph1,503267,male,26,English,United States of America,Left,R562056207610gxrw,,,,,,,,,,,,
2,instruction,survey-multi-choice,561339,male,26,English,United States of America,Left,R562056207610gxrw,,,"{""Q0"":"" To decide what caused the activation of G"",""Q1"":"" A detector becomes active if it absorbs a radioactive particle"",""Q2"":"" G becomes active if it absorbs a radioactive particle"",""Q3"":"" Square detectors maintain their activation over time but round detectors do not""}",,,,,,,,,
2,instruction,causal-graph1,563443,male,26,English,United States of America,Left,R562056207610gxrw,,,,,,,,,,,,
2,instruction,causal-graph1,564723,male,26,English,United States of America,Left,R562056207610gxrw,,,,,,,,,,,,
2,instruction,causal-graph1,565963,male,26,English,United States of America,Left,R562056207610gxrw,,,,,,,,,,,,
2,instruction,causal-graph1,571803,male,26,English,United States of America,Left,R562056207610gxrw,1.0,,,,,,,,,,,
2,instruction,causal-graph1,584482,male,26,English,United States of America,Left,R562056207610gxrw,,,,,,,,,,,,
2,instruction,causal-graph1,586163,male,26,English,United States of America,Left,R562056207610gxrw,,,,,,,,,,,,
2,instruction,causal-graph1,592682,male,26,English,United States of America,Left,R562056207610gxrw,1.0,,,,,,,,,,,
2,instruction,causal-graph1,595258,male,26,English,United States of America,Left,R562056207610gxrw,,,,,,,,,,,,
2,instruction,causal-graph1,607147,male,26,English,United States of America,Left,R562056207610gxrw,1.0,,,,,,,,,,,
2,instruction,causal-graph3,616900,male,26,English,United States of America,Left,R562056207610gxrw,1.0,,,,,,,,,,,
2,instruction,causal-graph1,618202,male,26,English,United States of America,Left,R562056207610gxrw,,,,,,,,,,,,
2,instruction,causal-graph1,619379,male,26,English,United States of America,Left,R562056207610gxrw,,,,,,,,,,,,
2,instruction,causal-graph1,620555,male,26,English,United States of America,Left,R562056207610gxrw,,,,,,,,,,,,
2,instruction,survey-multi-choice,642980,male,26,English,United States of America,Left,R562056207610gxrw,,,"{""Q0"":"" To find out if the Gauge of Critical Moment (G) is activated or not"",""Q1"":"" A detector becomes active if it absorbs a radioactive particle"",""Q2"":"" G becomes active if all of its inputs are active"",""Q3"":"" Square detectors maintain their activation over time but round detectors do not""}",,,,,,,,,
2,instruction,causal-graph1,645395,male,26,English,United States of America,Left,R562056207610gxrw,,,,,,,,,,,,
2,instruction,causal-graph1,646955,male,26,English,United States of America,Left,R562056207610gxrw,,,,,,,,,,,,
2,instruction,causal-graph1,647883,male,26,English,United States of America,Left,R562056207610gxrw,,,,,,,,,,,,
2,instruction,causal-graph1,653803,male,26,English,United States of America,Left,R562056207610gxrw,1.0,,,,,,,,,,,
2,instruction,causal-graph1,655115,male,26,English,United States of America,Left,R562056207610gxrw,,,,,,,,,,,,
2,instruction,causal-graph1,656283,male,26,English,United States of America,Left,R562056207610gxrw,,,,,,,,,,,,
2,instruction,causal-graph1,662555,male,26,English,United States of America,Left,R562056207610gxrw,1.0,,,,,,,,,,,
2,instruction,causal-graph1,663747,male,26,English,United States of America,Left,R562056207610gxrw,,,,,,,,,,,,
2,instruction,causal-graph1,669603,male,26,English,United States of America,Left,R562056207610gxrw,1.0,,,,,,,,,,,
2,instruction,causal-graph3,675978,male,26,English,United States of America,Left,R562056207610gxrw,1.0,,,,,,,,,,,
2,instruction,causal-graph1,677315,male,26,English,United States of America,Left,R562056207610gxrw,,,,,,,,,,,,
2,instruction,causal-graph1,678556,male,26,English,United States of America,Left,R562056207610gxrw,,,,,,,,,,,,
2,instruction,causal-graph1,693115,male,26,English,United States of America,Left,R562056207610gxrw,,,,,,,,,,,,
2,instruction,survey-multi-choice,718500,male,26,English,United States of America,Left,R562056207610gxrw,,,"{""Q0"":"" To decide what caused the activation of G"",""Q1"":"" A detector becomes active if it absorbs a radioactive particle or receives input from an active detector"",""Q2"":"" G becomes active if all of its inputs are active"",""Q3"":"" Square detectors maintain their activation over time but round detectors do not""}",,,,,,,,,
2,instruction,causal-graph1,723587,male,26,English,United States of America,Left,R562056207610gxrw,,,,,,,,,,,,
2,RAAC_LB,causal-graph3,750939,male,26,English,United States of America,Left,R562056207610gxrw,1.0,15278.0,,AND_Gate,Rolled,Bottom,Circles,Event,,A,A,nodeB19
2,RBAC_LB,causal-graph3,766683,male,26,English,United States of America,Left,R562056207610gxrw,1.0,4952.0,,AND_Gate,Rolled,Bottom,Circles,Event,,B,A,nodeA20
2,UBAC_LB,causal-graph1,787539,male,26,English,United States of America,Left,R562056207610gxrw,1.0,19093.0,,AND_Gate,Unrolled,Bottom,Circles,Event,,B,A,nodeA41
2,UBS_LB,causal-graph1,800675,male,26,English,United States of America,Left,R562056207610gxrw,1.0,10461.0,,AND_Gate,Unrolled,Bottom,Squares,State,B,,A,nodeA41
2,UABS_LB,causal-graph1,815995,male,26,English,United States of America,Left,R562056207610gxrw,1.0,13052.0,,AND_Gate,Unrolled,Bottom,Squares,Event,,A,B,nodeB19
2,UAS_LT,causal-graph1,827939,male,26,English,United States of America,Left,R562056207610gxrw,1.0,9733.0,,AND_Gate,Unrolled,Top,Squares,State,A,,B,nodeB19
2,chainS_L,causal-graph1,839811,male,26,English,United States of America,Left,R562056207610gxrw,1.0,9365.0,,ChainS,,,,,,,,nodeB19
2,UBBS_LB,causal-graph1,851619,male,26,English,United States of America,Left,R562056207610gxrw,1.0,9374.0,,AND_Gate,Unrolled,Bottom,Squares,Event,,B,B,nodeB19
2,UAAC_LB,causal-graph1,864403,male,26,English,United States of America,Left,R562056207610gxrw,1.0,10980.0,,AND_Gate,Unrolled,Bottom,Circles,Event,,A,A,nodeA41
2,UBAS_LB,causal-graph1,877843,male,26,English,United States of America,Left,R562056207610gxrw,1.0,10163.0,,AND_Gate,Unrolled,Bottom,Squares,Event,,B,A,nodeA41
2,RBC_LB,causal-graph3,889052,male,26,English,United States of America,Left,R562056207610gxrw,1.0,1851.0,,AND_Gate,Rolled,Bottom,Circles,State,B,,A,nodeA20
2,RAC_LB,causal-graph3,903683,male,26,English,United States of America,Left,R562056207610gxrw,1.0,4383.0,,AND_Gate,Rolled,Bottom,Circles,State,A,,A,nodeA20
2,chainC_LT,causal-graph1,914892,male,26,English,United States of America,Left,R562056207610gxrw,1.0,9452.0,,ChainC,,Top,,,,,,nodeA41
2,UBC_LB,causal-graph1,929891,male,26,English,United States of America,Left,R562056207610gxrw,1.0,10417.0,,AND_Gate,Unrolled,Bottom,Circles,State,B,,A,nodeA41
2,UAAS_LB,causal-graph1,954955,male,26,English,United States of America,Left,R562056207610gxrw,1.0,17804.0,,AND_Gate,Unrolled,Bottom,Squares,Event,,A,A,nodeA41
2,instruction,causal-graph1,957683,male,26,English,United States of America,Left,R562056207610gxrw,,,,,,,,,,,,
2,comment,survey-text,992644,male,26,English,United States of America,Left,R562056207610gxrw,,34955.0,"{""Q0"":""interesting HIT""}",,,,,,,,,
3,instruction,causal-graph1,10415,male,43,English,United States of America,Right,R562789207700gxrw,,,,,,,,,,,,
3,instruction,causal-graph1,21239,male,43,English,United States of America,Right,R562789207700gxrw,,,,,,,,,,,,
3,instruction,causal-graph1,46103,male,43,English,United States of America,Right,R562789207700gxrw,2.0,,,,,,,,,,,
3,instruction,causal-graph1,59454,male,43,English,United States of America,Right,R562789207700gxrw,,,,,,,,,,,,
3,instruction,causal-graph1,70674,male,43,English,United States of America,Right,R562789207700gxrw,,,,,,,,,,,,
3,instruction,causal-graph1,91627,male,43,English,United States of America,Right,R562789207700gxrw,2.0,,,,,,,,,,,
3,instruction,causal-graph1,99270,male,43,English,United States of America,Right,R562789207700gxrw,,,,,,,,,,,,
3,instruction,causal-graph1,127330,male,43,English,United States of America,Right,R562789207700gxrw,2.0,,,,,,,,,,,
3,instruction,causal-graph3,148723,male,43,English,United States of America,Right,R562789207700gxrw,1.0,,,,,,,,,,,
3,instruction,causal-graph1,169231,male,43,English,United States of America,Right,R562789207700gxrw,,,,,,,,,,,,
3,instruction,causal-graph1,176901,male,43,English,United States of America,Right,R562789207700gxrw,,,,,,,,,,,,
3,instruction,causal-graph1,190535,male,43,English,United States of America,Right,R562789207700gxrw,,,,,,,,,,,,
3,instruction,survey-multi-choice,271758,male,43,English,United States of America,Right,R562789207700gxrw,,,"{""Q0"":"" To decide what caused the activation of G"",""Q1"":"" A detector becomes active if it absorbs a radioactive particle"",""Q2"":"" G becomes active if at least one of its inputs is active"",""Q3"":"" Square detectors maintain their activation over time but round detectors do not""}",,,,,,,,,
3,instruction,causal-graph1,275419,male,43,English,United States of America,Right,R562789207700gxrw,,,,,,,,,,,,
3,instruction,causal-graph1,278066,male,43,English,United States of America,Right,R562789207700gxrw,,,,,,,,,,,,
3,instruction,causal-graph1,290932,male,43,English,United States of America,Right,R562789207700gxrw,,,,,,,,,,,,
3,instruction,causal-graph1,305838,male,43,English,United States of America,Right,R562789207700gxrw,1.0,,,,,,,,,,,
3,instruction,causal-graph1,315290,male,43,English,United States of America,Right,R562789207700gxrw,,,,,,,,,,,,
3,instruction,causal-graph1,321240,male,43,English,United States of America,Right,R562789207700gxrw,,,,,,,,,,,,
3,instruction,causal-graph1,335577,male,43,English,United States of America,Right,R562789207700gxrw,2.0,,,,,,,,,,,
3,instruction,causal-graph1,341798,male,43,English,United States of America,Right,R562789207700gxrw,,,,,,,,,,,,
3,instruction,causal-graph1,351507,male,43,English,United States of America,Right,R562789207700gxrw,1.0,,,,,,,,,,,
3,instruction,causal-graph3,359335,male,43,English,United States of America,Right,R562789207700gxrw,1.0,,,,,,,,,,,
3,instruction,causal-graph1,361422,male,43,English,United States of America,Right,R562789207700gxrw,,,,,,,,,,,,
3,instruction,causal-graph1,363685,male,43,English,United States of America,Right,R562789207700gxrw,,,,,,,,,,,,
3,instruction,causal-graph1,367300,male,43,English,United States of America,Right,R562789207700gxrw,,,,,,,,,,,,
3,instruction,survey-multi-choice,390285,male,43,English,United States of America,Right,R562789207700gxrw,,,"{""Q0"":"" To decide what caused the activation of G"",""Q1"":"" A detector becomes active if it absorbs a radioactive particle"",""Q2"":"" G becomes active if all of its inputs are active"",""Q3"":"" Square detectors maintain their activation over time but round detectors do not""}",,,,,,,,,
3,instruction,causal-graph1,393201,male,43,English,United States of America,Right,R562789207700gxrw,,,,,,,,,,,,
3,instruction,causal-graph1,394952,male,43,English,United States of America,Right,R562789207700gxrw,,,,,,,,,,,,
3,instruction,causal-graph1,396686,male,43,English,United States of America,Right,R562789207700gxrw,,,,,,,,,,,,
3,instruction,causal-graph1,403413,male,43,English,United States of America,Right,R562789207700gxrw,1.0,,,,,,,,,,,
3,instruction,causal-graph1,405083,male,43,English,United States of America,Right,R562789207700gxrw,,,,,,,,,,,,
3,instruction,causal-graph1,406916,male,43,English,United States of America,Right,R562789207700gxrw,,,,,,,,,,,,
3,instruction,causal-graph1,414175,male,43,English,United States of America,Right,R562789207700gxrw,1.0,,,,,,,,,,,
3,instruction,causal-graph1,416030,male,43,English,United States of America,Right,R562789207700gxrw,,,,,,,,,,,,
3,instruction,causal-graph1,422964,male,43,English,United States of America,Right,R562789207700gxrw,1.0,,,,,,,,,,,
3,instruction,causal-graph3,430881,male,43,English,United States of America,Right,R562789207700gxrw,1.0,,,,,,,,,,,
3,instruction,causal-graph1,432216,male,43,English,United States of America,Right,R562789207700gxrw,,,,,,,,,,,,
3,instruction,causal-graph1,433687,male,43,English,United States of America,Right,R562789207700gxrw,,,,,,,,,,,,
3,instruction,causal-graph1,435302,male,43,English,United States of America,Right,R562789207700gxrw,,,,,,,,,,,,
3,instruction,survey-multi-choice,464395,male,43,English,United States of America,Right,R562789207700gxrw,,,"{""Q0"":"" To decide what caused the activation of G"",""Q1"":"" A detector becomes active if it absorbs a radioactive particle or receives input from an active detector"",""Q2"":"" G becomes active if all of its inputs are active"",""Q3"":"" Square detectors maintain their activation over time but round detectors do not""}",,,,,,,,,
3,instruction,causal-graph1,467106,male,43,English,United States of America,Right,R562789207700gxrw,,,,,,,,,,,,
3,UBC_RB,causal-graph1,510329,male,43,English,United States of America,Right,R562789207700gxrw,2.0,27077.089999977037,,AND_Gate,Unrolled,Bottom,Circles,State,B,,A,nodeA20
3,UBAC_RB,causal-graph1,555813,male,43,English,United States of America,Right,R562789207700gxrw,3.0,15069.125000038184,,AND_Gate,Unrolled,Bottom,Circles,Event,,B,A,nodeA20
3,RBAC_RB,causal-graph3,572117,male,43,English,United States of America,Right,R562789207700gxrw,1.0,4629.345000023022,,AND_Gate,Rolled,Bottom,Circles,Event,,B,A,nodeA20
3,chainC_RB,causal-graph1,592812,male,43,English,United States of America,Right,R562789207700gxrw,2.0,10148.285000002945,,ChainC,,Bottom,,,,,,nodeA26
3,chainS_R,causal-graph1,619099,male,43,English,United States of America,Right,R562789207700gxrw,2.0,14157.405000005383,,ChainS,,,,,,,,nodeB9
3,UAAS_RB,causal-graph1,633950,male,43,English,United States of America,Right,R562789207700gxrw,1.0,12669.770000036806,,AND_Gate,Unrolled,Bottom,Squares,Event,,A,A,nodeA7
3,RAAC_RB,causal-graph3,648864,male,43,English,United States of America,Right,R562789207700gxrw,1.0,3333.2200000295416,,AND_Gate,Rolled,Bottom,Circles,Event,,A,A,nodeA20
3,UBAS_RB,causal-graph1,661703,male,43,English,United States of America,Right,R562789207700gxrw,1.0,10615.519999992102,,AND_Gate,Unrolled,Bottom,Squares,Event,,B,A,nodeA20
3,UBS_RB,causal-graph1,674034,male,43,English,United States of America,Right,R562789207700gxrw,1.0,10335.274999961257,,AND_Gate,Unrolled,Bottom,Squares,State,B,,A,nodeA20
3,RAC_RB,causal-graph3,695084,male,43,English,United States of America,Right,R562789207700gxrw,1.0,8899.489999981597,,AND_Gate,Rolled,Bottom,Circles,State,A,,A,nodeB7
3,UBBS_RB,causal-graph1,711625,male,43,English,United States of America,Right,R562789207700gxrw,1.0,14198.12000001548,,AND_Gate,Unrolled,Bottom,Squares,Event,,B,B,nodeB2
3,UABS_RB,causal-graph1,730514,male,43,English,United States of America,Right,R562789207700gxrw,1.0,14802.070000034291,,AND_Gate,Unrolled,Bottom,Squares,Event,,A,B,nodeB7
3,UAS_RB,causal-graph1,742116,male,43,English,United States of America,Right,R562789207700gxrw,1.0,9508.124999993017,,AND_Gate,Unrolled,Bottom,Squares,State,A,,B,nodeB7
3,RBC_RB,causal-graph3,756190,male,43,English,United States of America,Right,R562789207700gxrw,1.0,4431.455000012647,,AND_Gate,Rolled,Bottom,Circles,State,B,,A,nodeA20
3,UAAC_RT,causal-graph1,781508,male,43,English,United States of America,Right,R562789207700gxrw,2.0,12829.310000000989,,AND_Gate,Unrolled,Top,Circles,Event,,A,A,nodeA7
3,instruction,causal-graph1,786624,male,43,English,United States of America,Right,R562789207700gxrw,,,,,,,,,,,,
3,comment,survey-text,792191,male,43,English,United States of America,Right,R562789207700gxrw,,5524.924999976064,"{""Q0"":""""}",,,,,,,,,
4,instruction,causal-graph1,450073,male,59,English,United States of America,Right,R568425797910gxrw,,,,,,,,,,,,
4,instruction,causal-graph1,473251,male,59,English,United States of America,Right,R568425797910gxrw,,,,,,,,,,,,
4,instruction,causal-graph1,494627,male,59,English,United States of America,Right,R568425797910gxrw,1.0,,,,,,,,,,,
4,instruction,causal-graph1,497430,male,59,English,United States of America,Right,R568425797910gxrw,,,,,,,,,,,,
4,instruction,causal-graph1,499135,male,59,English,United States of America,Right,R568425797910gxrw,,,,,,,,,,,,
4,instruction,causal-graph1,506830,male,59,English,United States of America,Right,R568425797910gxrw,1.0,,,,,,,,,,,
4,instruction,causal-graph1,508805,male,59,English,United States of America,Right,R568425797910gxrw,,,,,,,,,,,,
4,instruction,causal-graph1,522869,male,59,English,United States of America,Right,R568425797910gxrw,1.0,,,,,,,,,,,
4,instruction,causal-graph3,535307,male,59,English,United States of America,Right,R568425797910gxrw,1.0,,,,,,,,,,,
4,instruction,causal-graph1,537187,male,59,English,United States of America,Right,R568425797910gxrw,,,,,,,,,,,,
4,instruction,causal-graph1,544960,male,59,English,United States of America,Right,R568425797910gxrw,,,,,,,,,,,,
4,instruction,causal-graph1,550064,male,59,English,United States of America,Right,R568425797910gxrw,,,,,,,,,,,,
4,instruction,survey-multi-choice,595064,male,59,English,United States of America,Right,R568425797910gxrw,,,"{""Q0"":"" To find out if the Gauge of Critical Moment (G) is activated or not"",""Q1"":"" A detector becomes active if it receives input from an active detector"",""Q2"":"" G becomes active if at least one of its inputs is active"",""Q3"":"" Square detectors maintain their activation over time but round detectors do not""}",,,,,,,,,
4,instruction,causal-graph1,598506,male,59,English,United States of America,Right,R568425797910gxrw,,,,,,,,,,,,
4,instruction,causal-graph1,612167,male,59,English,United States of America,Right,R568425797910gxrw,,,,,,,,,,,,
4,instruction,causal-graph1,623734,male,59,English,United States of America,Right,R568425797910gxrw,,,,,,,,,,,,
4,instruction,causal-graph1,661218,male,59,English,United States of America,Right,R568425797910gxrw,1.0,,,,,,,,,,,
4,instruction,causal-graph1,670336,male,59,English,United States of America,Right,R568425797910gxrw,,,,,,,,,,,,
4,instruction,causal-graph1,678792,male,59,English,United States of America,Right,R568425797910gxrw,,,,,,,,,,,,
4,instruction,causal-graph1,694677,male,59,English,United States of America,Right,R568425797910gxrw,1.0,,,,,,,,,,,
4,instruction,causal-graph1,703570,male,59,English,United States of America,Right,R568425797910gxrw,,,,,,,,,,,,
4,instruction,causal-graph1,716658,male,59,English,United States of America,Right,R568425797910gxrw,1.0,,,,,,,,,,,
4,instruction,causal-graph3,734417,male,59,English,United States of America,Right,R568425797910gxrw,1.0,,,,,,,,,,,
4,instruction,causal-graph1,740391,male,59,English,United States of America,Right,R568425797910gxrw,,,,,,,,,,,,
4,instruction,causal-graph1,748110,male,59,English,United States of America,Right,R568425797910gxrw,,,,,,,,,,,,
4,instruction,causal-graph1,755020,male,59,English,United States of America,Right,R568425797910gxrw,,,,,,,,,,,,
4,instruction,survey-multi-choice,1067486,male,59,English,United States of America,Right,R568425797910gxrw,,,"{""Q0"":"" To decide what caused the activation of G"",""Q1"":"" A detector becomes active if it absorbs a radioactive particle or receives input from an active detector"",""Q2"":"" G becomes active if all of its inputs are active"",""Q3"":"" Square detectors maintain their activation over time but round detectors do not""}",,,,,,,,,
4,instruction,causal-graph1,1095886,male,59,English,United States of America,Right,R568425797910gxrw,,,,,,,,,,,,
4,UBC_RT,causal-graph1,1113889,male,59,English,United States of America,Right,R568425797910gxrw,1.0,14465.00500000175,,AND_Gate,Unrolled,Top,Circles,State,B,,A,nodeA22
4,RBAC_RT,causal-graph3,1142178,male,59,English,United States of America,Right,R568425797910gxrw,1.0,6672.510000000242,,AND_Gate,Rolled,Top,Circles,Event,,B,A,nodeA1
4,UBS_RT,causal-graph1,1156695,male,59,English,United States of America,Right,R568425797910gxrw,1.0,11979.49000000162,,AND_Gate,Unrolled,Top,Squares,State,B,,A,nodeA20
4,chainS_R,causal-graph1,1167664,male,59,English,United States of America,Right,R568425797910gxrw,1.0,8545.675000001209,,ChainS,,,,,,,,nodeB9
4,UABS_RT,causal-graph1,1182925,male,59,English,United States of America,Right,R568425797910gxrw,1.0,12599.03499999922,,AND_Gate,Unrolled,Top,Squares,Event,,A,B,nodeB7
4,UBAS_RT,causal-graph1,1199386,male,59,English,United States of America,Right,R568425797910gxrw,1.0,14346.205000001471,,AND_Gate,Unrolled,Top,Squares,Event,,B,A,nodeA20
4,UAS_RB,causal-graph1,1213000,male,59,English,United States of America,Right,R568425797910gxrw,1.0,11363.47499999823,,AND_Gate,Unrolled,Bottom,Squares,State,A,,B,nodeB7
4,RBC_RT,causal-graph3,1225230,male,59,English,United States of America,Right,R568425797910gxrw,1.0,2473.270000002347,,AND_Gate,Rolled,Top,Circles,State,B,,A,nodeA2
4,RAC_RB,causal-graph3,1246412,male,59,English,United States of America,Right,R568425797910gxrw,1.0,7014.425000001211,,AND_Gate,Rolled,Bottom,Circles,State,A,,A,nodeB7
4,UBBS_RB,causal-graph1,1264529,male,59,English,United States of America,Right,R568425797910gxrw,1.0,15670.460000000894,,AND_Gate,Unrolled,Bottom,Squares,Event,,B,B,nodeB2
4,UAAS_RT,causal-graph1,1279726,male,59,English,United States of America,Right,R568425797910gxrw,1.0,13111.100000001492,,AND_Gate,Unrolled,Top,Squares,Event,,A,A,nodeA7
4,chainC_RT,causal-graph1,1302309,male,59,English,United States of America,Right,R568425797910gxrw,2.0,10842.47999999905,,ChainC,,Top,,,,,,nodeA26
4,UAAC_RT,causal-graph1,1327868,male,59,English,United States of America,Right,R568425797910gxrw,2.0,13275.60499999905,,AND_Gate,Unrolled,Top,Circles,Event,,A,A,nodeA7
4,UBAC_RB,causal-graph1,1354932,male,59,English,United States of America,Right,R568425797910gxrw,2.0,10256.975000000091,,AND_Gate,Unrolled,Bottom,Circles,Event,,B,A,nodeA20
4,RAAC_RT,causal-graph3,1392615,male,59,English,United States of America,Right,R568425797910gxrw,3.0,3695.8949999972247,,AND_Gate,Rolled,Top,Circles,Event,,A,A,nodeA6
4,instruction,causal-graph1,1395343,male,59,English,United States of America,Right,R568425797910gxrw,,,,,,,,,,,,
4,comment,survey-text,1405780,male,59,English,United States of America,Right,R568425797910gxrw,,10410.9000000027,"{""Q0"":""Nice task.""}",,,,,,,,,
5,instruction,causal-graph1,7314,male,55,english,United States of America,Left,R568269157550gxrw,,,,,,,,,,,,
5,instruction,causal-graph1,11456,male,55,english,United States of America,Left,R568269157550gxrw,,,,,,,,,,,,
5,instruction,causal-graph1,25320,male,55,english,United States of America,Left,R568269157550gxrw,1.0,,,,,,,,,,,
5,instruction,causal-graph1,32840,male,55,english,United States of America,Left,R568269157550gxrw,,,,,,,,,,,,
5,instruction,causal-graph1,42080,male,55,english,United States of America,Left,R568269157550gxrw,,,,,,,,,,,,
5,instruction,causal-graph1,53495,male,55,english,United States of America,Left,R568269157550gxrw,1.0,,,,,,,,,,,
5,instruction,causal-graph1,61368,male,55,english,United States of America,Left,R568269157550gxrw,,,,,,,,,,,,
5,instruction,causal-graph1,84392,male,55,english,United States of America,Left,R568269157550gxrw,1.0,,,,,,,,,,,
5,instruction,causal-graph3,99758,male,55,english,United States of America,Left,R568269157550gxrw,1.0,,,,,,,,,,,
5,instruction,causal-graph1,105735,male,55,english,United States of America,Left,R568269157550gxrw,,,,,,,,,,,,
5,instruction,causal-graph1,109776,male,55,english,United States of America,Left,R568269157550gxrw,,,,,,,,,,,,
5,instruction,causal-graph1,117423,male,55,english,United States of America,Left,R568269157550gxrw,,,,,,,,,,,,
5,instruction,survey-multi-choice,151648,male,55,english,United States of America,Left,R568269157550gxrw,,,"{""Q0"":"" To decide what caused the activation of G"",""Q1"":"" A detector becomes active if it absorbs a radioactive particle or receives input from an active detector"",""Q2"":"" G becomes active if all of its inputs are active"",""Q3"":"" Square detectors maintain their activation over time but round detectors do not""}",,,,,,,,,
5,instruction,causal-graph1,153942,male,55,english,United States of America,Left,R568269157550gxrw,,,,,,,,,,,,
5,RBC_LB,causal-graph3,172223,male,55,english,United States of America,Left,R568269157550gxrw,1.0,7578.825000004144,,AND_Gate,Rolled,Bottom,Circles,State,B,,A,nodeA20
5,RBAC_LB,causal-graph3,188972,male,55,english,United States of America,Left,R568269157550gxrw,1.0,4649.940000002971,,AND_Gate,Rolled,Bottom,Circles,Event,,B,A,nodeA20
5,UBAC_LB,causal-graph1,204580,male,55,english,United States of America,Left,R568269157550gxrw,1.0,13332.025000010615,,AND_Gate,Unrolled,Bottom,Circles,Event,,B,A,nodeA41
5,UABS_LT,causal-graph1,227610,male,55,english,United States of America,Left,R568269157550gxrw,1.0,20994.70999999903,,AND_Gate,Unrolled,Top,Squares,Event,,A,B,nodeB7
5,UAS_LB,causal-graph1,238914,male,55,english,United States of America,Left,R568269157550gxrw,1.0,9314.075000002049,,AND_Gate,Unrolled,Bottom,Squares,State,A,,B,nodeB7
5,chainC_LT,causal-graph1,250897,male,55,english,United States of America,Left,R568269157550gxrw,1.0,9448.555000009948,,ChainC,,Top,,,,,,nodeA41
5,RAC_LT,causal-graph3,274504,male,55,english,United States of America,Left,R568269157550gxrw,1.0,1512.6650000165682,,AND_Gate,Rolled,Top,Circles,State,A,,A,nodeB7
5,UBC_LT,causal-graph1,287186,male,55,english,United States of America,Left,R568269157550gxrw,1.0,11113.664999982575,,AND_Gate,Unrolled,Top,Circles,State,B,,A,nodeA41
5,UAAS_LT,causal-graph1,303185,male,55,english,United States of America,Left,R568269157550gxrw,1.0,13817.63000000501,,AND_Gate,Unrolled,Top,Squares,Event,,A,A,nodeA7
5,UAAC_LB,causal-graph1,320889,male,55,english,United States of America,Left,R568269157550gxrw,1.0,15154.810000007274,,AND_Gate,Unrolled,Bottom,Circles,Event,,A,A,nodeA41
5,UBS_LB,causal-graph1,334801,male,55,english,United States of America,Left,R568269157550gxrw,1.0,10176.10500002047,,AND_Gate,Unrolled,Bottom,Squares,State,B,,A,nodeA20
5,RAAC_LB,causal-graph3,351593,male,55,english,United States of America,Left,R568269157550gxrw,1.0,5584.745000000113,,AND_Gate,Rolled,Bottom,Circles,Event,,A,A,nodeA20
5,UBAS_LT,causal-graph1,363521,male,55,english,United States of America,Left,R568269157550gxrw,1.0,10002.999999996971,,AND_Gate,Unrolled,Top,Squares,Event,,B,A,nodeA20
5,chainS_L,causal-graph1,376592,male,55,english,United States of America,Left,R568269157550gxrw,1.0,10578.03000000422,,ChainS,,,,,,,,nodeB9
5,UBBS_LT,causal-graph1,397681,male,55,english,United States of America,Left,R568269157550gxrw,1.0,9913.215000007769,,AND_Gate,Unrolled,Top,Squares,Event,,B,B,nodeB2
5,instruction,causal-graph1,400369,male,55,english,United States of America,Left,R568269157550gxrw,,,,,,,,,,,,
5,comment,survey-text,405217,male,55,english,United States of America,Left,R568269157550gxrw,,4802.915000007488,"{""Q0"":""""}",,,,,,,,,
6,instruction,causal-graph1,115802,male,38,English,United States of America,Right,R568710107770gxrw,,,,,,,,,,,,
6,instruction,causal-graph1,120404,male,38,English,United States of America,Right,R568710107770gxrw,,,,,,,,,,,,
6,instruction,causal-graph1,127419,male,38,English,United States of America,Right,R568710107770gxrw,1.0,,,,,,,,,,,
6,instruction,causal-graph1,130301,male,38,English,United States of America,Right,R568710107770gxrw,,,,,,,,,,,,
6,instruction,causal-graph1,134239,male,38,English,United States of America,Right,R568710107770gxrw,,,,,,,,,,,,
6,instruction,causal-graph1,143797,male,38,English,United States of America,Right,R568710107770gxrw,1.0,,,,,,,,,,,
6,instruction,causal-graph1,146938,male,38,English,United States of America,Right,R568710107770gxrw,,,,,,,,,,,,
6,instruction,causal-graph1,160952,male,38,English,United States of America,Right,R568710107770gxrw,1.0,,,,,,,,,,,
6,instruction,causal-graph3,213113,male,38,English,United States of America,Right,R568710107770gxrw,1.0,,,,,,,,,,,
6,instruction,causal-graph1,215669,male,38,English,United States of America,Right,R568710107770gxrw,,,,,,,,,,,,
6,instruction,causal-graph1,219911,male,38,English,United States of America,Right,R568710107770gxrw,,,,,,,,,,,,
6,instruction,causal-graph1,223356,male,38,English,United States of America,Right,R568710107770gxrw,,,,,,,,,,,,
6,instruction,survey-multi-choice,245780,male,38,English,United States of America,Right,R568710107770gxrw,,,"{""Q0"":"" To decide what caused the activation of G"",""Q1"":"" A detector becomes active if it receives input from an active detector"",""Q2"":"" G becomes active if all of its inputs are active"",""Q3"":"" Square detectors maintain their activation over time but round detectors do not""}",,,,,,,,,
6,instruction,causal-graph1,250829,male,38,English,United States of America,Right,R568710107770gxrw,,,,,,,,,,,,
6,instruction,causal-graph1,253029,male,38,English,United States of America,Right,R568710107770gxrw,,,,,,,,,,,,
6,instruction,causal-graph1,255505,male,38,English,United States of America,Right,R568710107770gxrw,,,,,,,,,,,,
6,instruction,causal-graph1,262550,male,38,English,United States of America,Right,R568710107770gxrw,1.0,,,,,,,,,,,
6,instruction,causal-graph1,273616,male,38,English,United States of America,Right,R568710107770gxrw,,,,,,,,,,,,
6,instruction,causal-graph1,291784,male,38,English,United States of America,Right,R568710107770gxrw,,,,,,,,,,,,
6,instruction,causal-graph1,306271,male,38,English,United States of America,Right,R568710107770gxrw,1.0,,,,,,,,,,,
6,instruction,causal-graph1,308367,male,38,English,United States of America,Right,R568710107770gxrw,,,,,,,,,,,,
6,instruction,causal-graph1,320581,male,38,English,United States of America,Right,R568710107770gxrw,1.0,,,,,,,,,,,
6,instruction,causal-graph3,330746,male,38,English,United States of America,Right,R568710107770gxrw,1.0,,,,,,,,,,,
6,instruction,causal-graph1,334633,male,38,English,United States of America,Right,R568710107770gxrw,,,,,,,,,,,,
6,instruction,causal-graph1,342402,male,38,English,United States of America,Right,R568710107770gxrw,,,,,,,,,,,,
6,instruction,causal-graph1,345951,male,38,English,United States of America,Right,R568710107770gxrw,,,,,,,,,,,,
6,instruction,survey-multi-choice,385089,male,38,English,United States of America,Right,R568710107770gxrw,,,"{""Q0"":"" To decide what caused the activation of G"",""Q1"":"" A detector becomes active if it receives input from an active detector"",""Q2"":"" G becomes active if all of its inputs are active"",""Q3"":"" Square detectors transmit activation but round detectors do not""}",,,,,,,,,
6,instruction,causal-graph1,388068,male,38,English,United States of America,Right,R568710107770gxrw,,,,,,,,,,,,
6,instruction,causal-graph1,392258,male,38,English,United States of America,Right,R568710107770gxrw,,,,,,,,,,,,
6,instruction,causal-graph1,395783,male,38,English,United States of America,Right,R568710107770gxrw,,,,,,,,,,,,
6,instruction,causal-graph1,409982,male,38,English,United States of America,Right,R568710107770gxrw,1.0,,,,,,,,,,,
6,instruction,causal-graph1,430277,male,38,English,United States of America,Right,R568710107770gxrw,,,,,,,,,,,,
6,instruction,causal-graph1,441559,male,38,English,United States of America,Right,R568710107770gxrw,,,,,,,,,,,,
6,instruction,causal-graph1,455825,male,38,English,United States of America,Right,R568710107770gxrw,1.0,,,,,,,,,,,
6,instruction,causal-graph1,466164,male,38,English,United States of America,Right,R568710107770gxrw,,,,,,,,,,,,
6,instruction,causal-graph1,489840,male,38,English,United States of America,Right,R568710107770gxrw,1.0,,,,,,,,,,,
6,instruction,causal-graph3,508663,male,38,English,United States of America,Right,R568710107770gxrw,1.0,,,,,,,,,,,
6,instruction,causal-graph1,514708,male,38,English,United States of America,Right,R568710107770gxrw,,,,,,,,,,,,
6,instruction,causal-graph1,517921,male,38,English,United States of America,Right,R568710107770gxrw,,,,,,,,,,,,
6,instruction,causal-graph1,520273,male,38,English,United States of America,Right,R568710107770gxrw,,,,,,,,,,,,
6,instruction,survey-multi-choice,730136,male,38,English,United States of America,Right,R568710107770gxrw,,,"{""Q0"":"" To decide what caused the activation of G"",""Q1"":"" A detector becomes active if it receives input from an active detector"",""Q2"":"" G becomes active if all of its inputs are active"",""Q3"":"" Round detectors maintain their activation over time but square detectors do not""}",,,,,,,,,
6,instruction,causal-graph1,733265,male,38,English,United States of America,Right,R568710107770gxrw,,,,,,,,,,,,
6,instruction,causal-graph1,844292,male,38,English,United States of America,Right,R568710107770gxrw,,,,,,,,,,,,
6,instruction,causal-graph1,848391,male,38,English,United States of America,Right,R568710107770gxrw,,,,,,,,,,,,
6,instruction,causal-graph1,857551,male,38,English,United States of America,Right,R568710107770gxrw,1.0,,,,,,,,,,,
6,instruction,causal-graph1,861162,male,38,English,United States of America,Right,R568710107770gxrw,,,,,,,,,,,,
6,instruction,causal-graph1,864420,male,38,English,United States of America,Right,R568710107770gxrw,,,,,,,,,,,,
6,instruction,causal-graph1,875137,male,38,English,United States of America,Right,R568710107770gxrw,1.0,,,,,,,,,,,
6,instruction,causal-graph1,878703,male,38,English,United States of America,Right,R568710107770gxrw,,,,,,,,,,,,
6,instruction,causal-graph1,888444,male,38,English,United States of America,Right,R568710107770gxrw,1.0,,,,,,,,,,,
6,instruction,causal-graph3,899139,male,38,English,United States of America,Right,R568710107770gxrw,1.0,,,,,,,,,,,
6,instruction,causal-graph1,903094,male,38,English,United States of America,Right,R568710107770gxrw,,,,,,,,,,,,
6,instruction,causal-graph1,914242,male,38,English,United States of America,Right,R568710107770gxrw,,,,,,,,,,,,
6,instruction,causal-graph1,917721,male,38,English,United States of America,Right,R568710107770gxrw,,,,,,,,,,,,
6,instruction,survey-multi-choice,1073034,male,38,English,United States of America,Right,R568710107770gxrw,,,"{""Q0"":"" To decide what caused the activation of G"",""Q1"":"" A detector becomes active if it absorbs a radioactive particle"",""Q2"":"" G becomes active if all of its inputs are active"",""Q3"":"" Square detectors maintain their activation over time but round detectors do not""}",,,,,,,,,
6,instruction,causal-graph1,1077130,male,38,English,United States of America,Right,R568710107770gxrw,,,,,,,,,,,,
6,instruction,causal-graph1,1078341,male,38,English,United States of America,Right,R568710107770gxrw,,,,,,,,,,,,
6,instruction,causal-graph1,1080153,male,38,English,United States of America,Right,R568710107770gxrw,,,,,,,,,,,,
6,instruction,causal-graph1,1182343,male,38,English,United States of America,Right,R568710107770gxrw,1.0,,,,,,,,,,,
6,instruction,causal-graph1,1185361,male,38,English,United States of America,Right,R568710107770gxrw,,,,,,,,,,,,
6,instruction,causal-graph1,1187057,male,38,English,United States of America,Right,R568710107770gxrw,,,,,,,,,,,,
6,instruction,causal-graph1,1193459,male,38,English,United States of America,Right,R568710107770gxrw,1.0,,,,,,,,,,,
6,instruction,causal-graph1,1195905,male,38,English,United States of America,Right,R568710107770gxrw,,,,,,,,,,,,
6,instruction,causal-graph1,1204321,male,38,English,United States of America,Right,R568710107770gxrw,1.0,,,,,,,,,,,
6,instruction,causal-graph3,1212167,male,38,English,United States of America,Right,R568710107770gxrw,1.0,,,,,,,,,,,
6,instruction,causal-graph1,1214778,male,38,English,United States of America,Right,R568710107770gxrw,,,,,,,,,,,,
6,instruction,causal-graph1,1219611,male,38,English,United States of America,Right,R568710107770gxrw,,,,,,,,,,,,
6,instruction,causal-graph1,1221612,male,38,English,United States of America,Right,R568710107770gxrw,,,,,,,,,,,,
6,instruction,survey-multi-choice,1232002,male,38,English,United States of America,Right,R568710107770gxrw,,,"{""Q0"":"" To decide what caused the activation of G"",""Q1"":"" A detector becomes active if it receives input from an active detector"",""Q2"":"" G becomes active if all of its inputs are active"",""Q3"":"" Square detectors maintain their activation over time but round detectors do not""}",,,,,,,,,
6,instruction,causal-graph1,1234797,male,38,English,United States of America,Right,R568710107770gxrw,,,,,,,,,,,,
6,instruction,causal-graph1,1237654,male,38,English,United States of America,Right,R568710107770gxrw,,,,,,,,,,,,
6,instruction,causal-graph1,1239643,male,38,English,United States of America,Right,R568710107770gxrw,,,,,,,,,,,,
6,instruction,causal-graph1,1285662,male,38,English,United States of America,Right,R568710107770gxrw,2.0,,,,,,,,,,,
6,instruction,causal-graph1,1288322,male,38,English,United States of America,Right,R568710107770gxrw,,,,,,,,,,,,
6,instruction,causal-graph1,1291141,male,38,English,United States of America,Right,R568710107770gxrw,,,,,,,,,,,,
6,instruction,causal-graph1,1299408,male,38,English,United States of America,Right,R568710107770gxrw,1.0,,,,,,,,,,,
6,instruction,causal-graph1,1301570,male,38,English,United States of America,Right,R568710107770gxrw,,,,,,,,,,,,
6,instruction,causal-graph1,1308381,male,38,English,United States of America,Right,R568710107770gxrw,1.0,,,,,,,,,,,
6,instruction,causal-graph3,1320753,male,38,English,United States of America,Right,R568710107770gxrw,1.0,,,,,,,,,,,
6,instruction,causal-graph1,1324712,male,38,English,United States of America,Right,R568710107770gxrw,,,,,,,,,,,,
6,instruction,causal-graph1,1337197,male,38,English,United States of America,Right,R568710107770gxrw,,,,,,,,,,,,
6,instruction,causal-graph1,1342732,male,38,English,United States of America,Right,R568710107770gxrw,,,,,,,,,,,,
6,instruction,survey-multi-choice,1365194,male,38,English,United States of America,Right,R568710107770gxrw,,,"{""Q0"":"" To decide what caused the activation of G"",""Q1"":"" A detector becomes active if it absorbs a radioactive particle or receives input from an active detector"",""Q2"":"" G becomes active if all of its inputs are active"",""Q3"":"" Square detectors maintain their activation over time but round detectors do not""}",,,,,,,,,
6,instruction,causal-graph1,1369395,male,38,English,United States of America,Right,R568710107770gxrw,,,,,,,,,,,,
6,RAAC_RT,causal-graph3,1388058,male,38,English,United States of America,Right,R568710107770gxrw,1.0,3635.999999940395,,AND_Gate,Rolled,Top,Circles,Event,,A,A,nodeB20
6,RAC_RT,causal-graph3,1573685,male,38,English,United States of America,Right,R568710107770gxrw,2.0,7455.000000074506,,AND_Gate,Rolled,Top,Circles,State,A,,A,nodeB9
6,RBC_RT,causal-graph3,1605827,male,38,English,United States of America,Right,R568710107770gxrw,1.0,16261.999999638647,,AND_Gate,Rolled,Top,Circles,State,B,,A,nodeB20
6,RBAC_RT,causal-graph3,1623985,male,38,English,United States of America,Right,R568710107770gxrw,1.0,2398.0000000447035,,AND_Gate,Rolled,Top,Circles,Event,,B,A,nodeB20
6,UBC_RT,causal-graph1,1657013,male,38,English,United States of America,Right,R568710107770gxrw,1.0,15391.99999999255,,AND_Gate,Unrolled,Top,Circles,State,B,,A,nodeB20
6,chainC_RB,causal-graph1,1713015,male,38,English,United States of America,Right,R568710107770gxrw,1.0,16209.999999962749,,ChainC,,Bottom,,,,,,nodeB20
6,chainS_R,causal-graph1,1736571,male,38,English,United States of America,Right,R568710107770gxrw,1.0,17308.999999891967,,ChainS,,,,,,,,nodeB20
6,UAAC_RT,causal-graph1,1764676,male,38,English,United States of America,Right,R568710107770gxrw,1.0,12177.00000014156,,AND_Gate,Unrolled,Top,Circles,Event,,A,A,nodeB20
6,UAAS_RT,causal-graph1,1810611,male,38,English,United States of America,Right,R568710107770gxrw,1.0,26557.99999972805,,AND_Gate,Unrolled,Top,Squares,Event,,A,A,nodeB20
6,UBAC_RB,causal-graph1,1841866,male,38,English,United States of America,Right,R568710107770gxrw,1.0,20291.000000201166,,AND_Gate,Unrolled,Bottom,Circles,Event,,B,A,nodeB20
6,UABS_RB,causal-graph1,1906034,male,38,English,United States of America,Right,R568710107770gxrw,1.0,55257.99999991432,,AND_Gate,Unrolled,Bottom,Squares,Event,,A,B,nodeB20
6,UAS_RT,causal-graph1,1938515,male,38,English,United States of America,Right,R568710107770gxrw,2.0,9933.000000193715,,AND_Gate,Unrolled,Top,Squares,State,A,,B,nodeB20
6,UBAS_RT,causal-graph1,1981997,male,38,English,United States of America,Right,R568710107770gxrw,1.0,40322.99999985844,,AND_Gate,Unrolled,Top,Squares,Event,,B,A,nodeB20
6,UBS_RT,causal-graph1,2001713,male,38,English,United States of America,Right,R568710107770gxrw,1.0,10885.999999940395,,AND_Gate,Unrolled,Top,Squares,State,B,,A,nodeB20
6,UBBS_RT,causal-graph1,2016398,male,38,English,United States of America,Right,R568710107770gxrw,1.0,9936.999999918044,,AND_Gate,Unrolled,Top,Squares,Event,,B,B,nodeB20
6,instruction,causal-graph1,2021472,male,38,English,United States of America,Right,R568710107770gxrw,,,,,,,,,,,,
6,comment,survey-text,2023613,male,38,English,United States of America,Right,R568710107770gxrw,,2106.000000145287,"{""Q0"":""""}",,,,,,,,,
7,instruction,causal-graph1,9863,male,25,english,United States of America,Left,R563811667220gxrw,,,,,,,,,,,,
7,instruction,causal-graph1,13935,male,25,english,United States of America,Left,R563811667220gxrw,,,,,,,,,,,,
7,instruction,causal-graph1,36156,male,25,english,United States of America,Left,R563811667220gxrw,1.0,,,,,,,,,,,
7,instruction,causal-graph1,39458,male,25,english,United States of America,Left,R563811667220gxrw,,,,,,,,,,,,
7,instruction,causal-graph1,47745,male,25,english,United States of America,Left,R563811667220gxrw,,,,,,,,,,,,
7,instruction,causal-graph1,58531,male,25,english,United States of America,Left,R563811667220gxrw,1.0,,,,,,,,,,,
7,instruction,causal-graph1,63713,male,25,english,United States of America,Left,R563811667220gxrw,,,,,,,,,,,,
7,instruction,causal-graph1,88619,male,25,english,United States of America,Left,R563811667220gxrw,1.0,,,,,,,,,,,
7,instruction,causal-graph3,98412,male,25,english,United States of America,Left,R563811667220gxrw,1.0,,,,,,,,,,,
7,instruction,causal-graph1,101213,male,25,english,United States of America,Left,R563811667220gxrw,,,,,,,,,,,,
7,instruction,causal-graph1,103670,male,25,english,United States of America,Left,R563811667220gxrw,,,,,,,,,,,,
7,instruction,causal-graph1,111665,male,25,english,United States of America,Left,R563811667220gxrw,,,,,,,,,,,,
7,instruction,survey-multi-choice,153675,male,25,english,United States of America,Left,R563811667220gxrw,,,"{""Q0"":"" To decide what caused the activation of G"",""Q1"":"" A detector becomes active if it receives input from an active detector"",""Q2"":"" G becomes active if all of its inputs are active"",""Q3"":"" Square detectors maintain their activation over time but round detectors do not""}",,,,,,,,,
7,instruction,causal-graph1,156424,male,25,english,United States of America,Left,R563811667220gxrw,,,,,,,,,,,,
7,instruction,causal-graph1,157973,male,25,english,United States of America,Left,R563811667220gxrw,,,,,,,,,,,,
7,instruction,causal-graph1,159175,male,25,english,United States of America,Left,R563811667220gxrw,,,,,,,,,,,,
7,instruction,causal-graph1,164053,male,25,english,United States of America,Left,R563811667220gxrw,1.0,,,,,,,,,,,
7,instruction,causal-graph1,165214,male,25,english,United States of America,Left,R563811667220gxrw,,,,,,,,,,,,
7,instruction,causal-graph1,166252,male,25,english,United States of America,Left,R563811667220gxrw,,,,,,,,,,,,
7,instruction,causal-graph1,172442,male,25,english,United States of America,Left,R563811667220gxrw,1.0,,,,,,,,,,,
7,instruction,causal-graph1,173570,male,25,english,United States of America,Left,R563811667220gxrw,,,,,,,,,,,,
7,instruction,causal-graph1,184767,male,25,english,United States of America,Left,R563811667220gxrw,1.0,,,,,,,,,,,
7,instruction,causal-graph3,192662,male,25,english,United States of America,Left,R563811667220gxrw,1.0,,,,,,,,,,,
7,instruction,causal-graph1,194249,male,25,english,United States of America,Left,R563811667220gxrw,,,,,,,,,,,,
7,instruction,causal-graph1,196843,male,25,english,United States of America,Left,R563811667220gxrw,,,,,,,,,,,,
7,instruction,causal-graph1,198769,male,25,english,United States of America,Left,R563811667220gxrw,,,,,,,,,,,,
7,instruction,survey-multi-choice,251512,male,25,english,United States of America,Left,R563811667220gxrw,,,"{""Q0"":"" To decide what caused the activation of each detector"",""Q1"":"" A detector becomes active if it absorbs a radioactive particle or receives input from an active detector"",""Q2"":"" G becomes active if all of its inputs are active"",""Q3"":"" Square detectors maintain their activation over time but round detectors do not""}",,,,,,,,,
7,instruction,causal-graph1,252939,male,25,english,United States of America,Left,R563811667220gxrw,,,,,,,,,,,,
7,instruction,causal-graph1,254706,male,25,english,United States of America,Left,R563811667220gxrw,,,,,,,,,,,,
7,instruction,causal-graph1,256393,male,25,english,United States of America,Left,R563811667220gxrw,,,,,,,,,,,,
7,instruction,causal-graph1,264745,male,25,english,United States of America,Left,R563811667220gxrw,1.0,,,,,,,,,,,
7,instruction,causal-graph1,266336,male,25,english,United States of America,Left,R563811667220gxrw,,,,,,,,,,,,
7,instruction,causal-graph1,269505,male,25,english,United States of America,Left,R563811667220gxrw,,,,,,,,,,,,
7,instruction,causal-graph1,276102,male,25,english,United States of America,Left,R563811667220gxrw,1.0,,,,,,,,,,,
7,instruction,causal-graph1,280405,male,25,english,United States of America,Left,R563811667220gxrw,,,,,,,,,,,,
7,instruction,causal-graph1,302197,male,25,english,United States of America,Left,R563811667220gxrw,1.0,,,,,,,,,,,
7,instruction,causal-graph3,311377,male,25,english,United States of America,Left,R563811667220gxrw,1.0,,,,,,,,,,,
7,instruction,causal-graph1,312594,male,25,english,United States of America,Left,R563811667220gxrw,,,,,,,,,,,,
7,instruction,causal-graph1,313721,male,25,english,United States of America,Left,R563811667220gxrw,,,,,,,,,,,,
7,instruction,causal-graph1,315143,male,25,english,United States of America,Left,R563811667220gxrw,,,,,,,,,,,,
7,instruction,survey-multi-choice,360162,male,25,english,United States of America,Left,R563811667220gxrw,,,"{""Q0"":"" To decide what caused the activation of G"",""Q1"":"" A detector becomes active if it receives input from an active detector"",""Q2"":"" G becomes active if all of its inputs are active"",""Q3"":"" Square detectors maintain their activation over time but round detectors do not""}",,,,,,,,,
7,instruction,causal-graph1,361959,male,25,english,United States of America,Left,R563811667220gxrw,,,,,,,,,,,,
7,instruction,causal-graph1,363497,male,25,english,United States of America,Left,R563811667220gxrw,,,,,,,,,,,,
7,instruction,causal-graph1,364695,male,25,english,United States of America,Left,R563811667220gxrw,,,,,,,,,,,,
7,instruction,causal-graph1,372691,male,25,english,United States of America,Left,R563811667220gxrw,1.0,,,,,,,,,,,
7,instruction,causal-graph1,373611,male,25,english,United States of America,Left,R563811667220gxrw,,,,,,,,,,,,
7,instruction,causal-graph1,374458,male,25,english,United States of America,Left,R563811667220gxrw,,,,,,,,,,,,
7,instruction,causal-graph1,380624,male,25,english,United States of America,Left,R563811667220gxrw,1.0,,,,,,,,,,,
7,instruction,causal-graph1,381511,male,25,english,United States of America,Left,R563811667220gxrw,,,,,,,,,,,,
7,instruction,causal-graph1,387207,male,25,english,United States of America,Left,R563811667220gxrw,1.0,,,,,,,,,,,
7,instruction,causal-graph3,393374,male,25,english,United States of America,Left,R563811667220gxrw,1.0,,,,,,,,,,,
7,instruction,causal-graph1,394408,male,25,english,United States of America,Left,R563811667220gxrw,,,,,,,,,,,,
7,instruction,causal-graph1,395465,male,25,english,United States of America,Left,R563811667220gxrw,,,,,,,,,,,,
7,instruction,causal-graph1,396775,male,25,english,United States of America,Left,R563811667220gxrw,,,,,,,,,,,,
7,instruction,survey-multi-choice,419220,male,25,english,United States of America,Left,R563811667220gxrw,,,"{""Q0"":"" To decide what caused the activation of G"",""Q1"":"" A detector becomes active if it absorbs a radioactive particle"",""Q2"":"" G becomes active if all of its inputs are active"",""Q3"":"" Square detectors maintain their activation over time but round detectors do not""}",,,,,,,,,
7,instruction,causal-graph1,421599,male,25,english,United States of America,Left,R563811667220gxrw,,,,,,,,,,,,
7,instruction,causal-graph1,423590,male,25,english,United States of America,Left,R563811667220gxrw,,,,,,,,,,,,
7,instruction,causal-graph1,425451,male,25,english,United States of America,Left,R563811667220gxrw,,,,,,,,,,,,
7,instruction,causal-graph1,445118,male,25,english,United States of America,Left,R563811667220gxrw,1.0,,,,,,,,,,,
7,instruction,causal-graph1,446153,male,25,english,United States of America,Left,R563811667220gxrw,,,,,,,,,,,,
7,instruction,causal-graph1,446968,male,25,english,United States of America,Left,R563811667220gxrw,,,,,,,,,,,,
7,instruction,causal-graph1,452732,male,25,english,United States of America,Left,R563811667220gxrw,1.0,,,,,,,,,,,
7,instruction,causal-graph1,453682,male,25,english,United States of America,Left,R563811667220gxrw,,,,,,,,,,,,
7,instruction,causal-graph1,459572,male,25,english,United States of America,Left,R563811667220gxrw,1.0,,,,,,,,,,,
7,instruction,causal-graph3,465733,male,25,english,United States of America,Left,R563811667220gxrw,1.0,,,,,,,,,,,
7,instruction,causal-graph1,466732,male,25,english,United States of America,Left,R563811667220gxrw,,,,,,,,,,,,
7,instruction,causal-graph1,467794,male,25,english,United States of America,Left,R563811667220gxrw,,,,,,,,,,,,
7,instruction,causal-graph1,469032,male,25,english,United States of America,Left,R563811667220gxrw,,,,,,,,,,,,
7,instruction,survey-multi-choice,492153,male,25,english,United States of America,Left,R563811667220gxrw,,,"{""Q0"":"" To decide what caused the activation of G"",""Q1"":"" A detector becomes active if it absorbs a radioactive particle or receives input from an active detector"",""Q2"":"" G becomes active if all of its inputs are active"",""Q3"":"" Square detectors maintain their activation over time but round detectors do not""}",,,,,,,,,
7,instruction,causal-graph1,493650,male,25,english,United States of America,Left,R563811667220gxrw,,,,,,,,,,,,
7,UAAC_LT,causal-graph1,517829,male,25,english,United States of America,Left,R563811667220gxrw,1.0,21819.544999976642,,AND_Gate,Unrolled,Top,Circles,Event,,A,A,nodeA41
7,RBC_LT,causal-graph3,529778,male,25,english,United States of America,Left,R563811667220gxrw,1.0,2139.18499997817,,AND_Gate,Rolled,Top,Circles,State,B,,A,nodeA20
7,UAS_LB,causal-graph1,546206,male,25,english,United States of America,Left,R563811667220gxrw,1.0,14706.4900000114,,AND_Gate,Unrolled,Bottom,Squares,State,A,,B,nodeB19
7,UBBS_LB,causal-graph1,562480,male,25,english,United States of America,Left,R563811667220gxrw,1.0,13201.78499998292,,AND_Gate,Unrolled,Bottom,Squares,Event,,B,B,nodeB19
7,chainS_L,causal-graph1,575166,male,25,english,United States of America,Left,R563811667220gxrw,1.0,10203.21499998681,,ChainS,,,,,,,,nodeB19
7,RBAC_LT,causal-graph3,587676,male,25,english,United States of America,Left,R563811667220gxrw,1.0,2288.539999979548,,AND_Gate,Rolled,Top,Circles,Event,,B,A,nodeA20
7,RAAC_LT,causal-graph3,601622,male,25,english,United States of America,Left,R563811667220gxrw,1.0,2105.8649999904446,,AND_Gate,Rolled,Top,Circles,Event,,A,A,nodeA20
7,UABS_LT,causal-graph1,616448,male,25,english,United States of America,Left,R563811667220gxrw,1.0,13407.86500001559,,AND_Gate,Unrolled,Top,Squares,Event,,A,B,nodeB19
7,UBAS_LT,causal-graph1,630576,male,25,english,United States of America,Left,R563811667220gxrw,1.0,11375.570000003792,,AND_Gate,Unrolled,Top,Squares,Event,,B,A,nodeA41
7,RAC_LB,causal-graph3,644635,male,25,english,United States of America,Left,R563811667220gxrw,1.0,3893.4850000077863,,AND_Gate,Rolled,Bottom,Circles,State,A,,A,nodeA20
7,UBAC_LT,causal-graph1,656911,male,25,english,United States of America,Left,R563811667220gxrw,1.0,10635.259999980915,,AND_Gate,Unrolled,Top,Circles,Event,,B,A,nodeA41
7,UBC_LT,causal-graph1,682913,male,25,english,United States of America,Left,R563811667220gxrw,1.0,24880.300000018906,,AND_Gate,Unrolled,Top,Circles,State,B,,A,nodeA41
7,UAAS_LB,causal-graph1,695681,male,25,english,United States of America,Left,R563811667220gxrw,1.0,10945.129999978237,,AND_Gate,Unrolled,Bottom,Squares,Event,,A,A,nodeA41
7,chainC_LB,causal-graph1,707321,male,25,english,United States of America,Left,R563811667220gxrw,1.0,10735.075000004144,,ChainC,,Bottom,,,,,,nodeA41
7,UBS_LT,causal-graph1,734310,male,25,english,United States of America,Left,R563811667220gxrw,1.0,13218.504999997094,,AND_Gate,Unrolled,Top,Squares,State,B,,A,nodeA41
7,instruction,causal-graph1,740522,male,25,english,United States of America,Left,R563811667220gxrw,,,,,,,,,,,,
7,comment,survey-text,743860,male,25,english,United States of America,Left,R563811667220gxrw,,3289.0149999875566,"{""Q0"":""""}",,,,,,,,,
8,instruction,causal-graph1,3396,female,34,English,United States of America,Left,R569469527430gxrw,,,,,,,,,,,,
8,instruction,causal-graph1,7685,female,34,English,United States of America,Left,R569469527430gxrw,,,,,,,,,,,,
8,instruction,causal-graph1,21793,female,34,English,United States of America,Left,R569469527430gxrw,1.0,,,,,,,,,,,
8,instruction,causal-graph1,29061,female,34,English,United States of America,Left,R569469527430gxrw,,,,,,,,,,,,
8,instruction,causal-graph1,37619,female,34,English,United States of America,Left,R569469527430gxrw,,,,,,,,,,,,
8,instruction,causal-graph1,48666,female,34,English,United States of America,Left,R569469527430gxrw,1.0,,,,,,,,,,,
8,instruction,causal-graph1,55933,female,34,English,United States of America,Left,R569469527430gxrw,,,,,,,,,,,,
8,instruction,causal-graph1,69276,female,34,English,United States of America,Left,R569469527430gxrw,1.0,,,,,,,,,,,
8,instruction,causal-graph3,81786,female,34,English,United States of America,Left,R569469527430gxrw,1.0,,,,,,,,,,,
8,instruction,causal-graph1,87246,female,34,English,United States of America,Left,R569469527430gxrw,,,,,,,,,,,,
8,instruction,causal-graph1,93216,female,34,English,United States of America,Left,R569469527430gxrw,,,,,,,,,,,,
8,instruction,causal-graph1,97206,female,34,English,United States of America,Left,R569469527430gxrw,,,,,,,,,,,,
8,instruction,survey-multi-choice,127589,female,34,English,United States of America,Left,R569469527430gxrw,,,"{""Q0"":"" To decide what caused the activation of G"",""Q1"":"" A detector becomes active if it absorbs a radioactive particle or receives input from an active detector"",""Q2"":"" G becomes active if it absorbs a radioactive particle"",""Q3"":"" Square detectors maintain their activation over time but round detectors do not""}",,,,,,,,,
8,instruction,causal-graph1,130079,female,34,English,United States of America,Left,R569469527430gxrw,,,,,,,,,,,,
8,instruction,causal-graph1,131331,female,34,English,United States of America,Left,R569469527430gxrw,,,,,,,,,,,,
8,instruction,causal-graph1,131834,female,34,English,United States of America,Left,R569469527430gxrw,,,,,,,,,,,,
8,instruction,causal-graph1,135756,female,34,English,United States of America,Left,R569469527430gxrw,1.0,,,,,,,,,,,
8,instruction,causal-graph1,136387,female,34,English,United States of America,Left,R569469527430gxrw,,,,,,,,,,,,
8,instruction,causal-graph1,137076,female,34,English,United States of America,Left,R569469527430gxrw,,,,,,,,,,,,
8,instruction,causal-graph1,143467,female,34,English,United States of America,Left,R569469527430gxrw,1.0,,,,,,,,,,,
8,instruction,causal-graph1,147419,female,34,English,United States of America,Left,R569469527430gxrw,,,,,,,,,,,,
8,instruction,causal-graph1,158962,female,34,English,United States of America,Left,R569469527430gxrw,1.0,,,,,,,,,,,
8,instruction,causal-graph3,164924,female,34,English,United States of America,Left,R569469527430gxrw,1.0,,,,,,,,,,,
8,instruction,causal-graph1,165487,female,34,English,United States of America,Left,R569469527430gxrw,,,,,,,,,,,,
8,instruction,causal-graph1,166065,female,34,English,United States of America,Left,R569469527430gxrw,,,,,,,,,,,,
8,instruction,causal-graph1,166597,female,34,English,United States of America,Left,R569469527430gxrw,,,,,,,,,,,,
8,instruction,survey-multi-choice,199792,female,34,English,United States of America,Left,R569469527430gxrw,,,"{""Q0"":"" To decide what caused the activation of G"",""Q1"":"" A detector becomes active if it absorbs a radioactive particle or receives input from an active detector"",""Q2"":"" G becomes active if all of its inputs are active"",""Q3"":"" Square detectors maintain their activation over time but round detectors do not""}",,,,,,,,,
8,instruction,causal-graph1,201502,female,34,English,United States of America,Left,R569469527430gxrw,,,,,,,,,,,,
8,chainC_LT,causal-graph1,217673,female,34,English,United States of America,Left,R569469527430gxrw,1.0,14375.394999980928,,ChainC,,Top,,,,,,nodeA25
8,RBAC_LT,causal-graph3,231833,female,34,English,United States of America,Left,R569469527430gxrw,1.0,3535.429999930784,,AND_Gate,Rolled,Top,Circles,Event,,B,A,nodeB1
8,UBAS_LB,causal-graph1,248903,female,34,English,United States of America,Left,R569469527430gxrw,1.0,14824.949999921955,,AND_Gate,Unrolled,Bottom,Squares,Event,,B,A,nodeB3
8,UAAS_LB,causal-graph1,262388,female,34,English,United States of America,Left,R569469527430gxrw,1.0,12057.730000000449,,AND_Gate,Unrolled,Bottom,Squares,Event,,A,A,nodeB6
8,RAC_LT,causal-graph3,278737,female,34,English,United States of America,Left,R569469527430gxrw,1.0,4214.4749999279165,,AND_Gate,Rolled,Top,Circles,State,A,,A,nodeB6
8,UBS_LB,causal-graph1,293115,female,34,English,United States of America,Left,R569469527430gxrw,1.0,10139.53499996569,,AND_Gate,Unrolled,Bottom,Squares,State,B,,A,nodeB3
8,UAS_LT,causal-graph1,303292,female,34,English,United States of America,Left,R569469527430gxrw,1.0,8742.025000043213,,AND_Gate,Unrolled,Top,Squares,State,A,,B,nodeB6
8,chainS_L,causal-graph1,315885,female,34,English,United States of America,Left,R569469527430gxrw,1.0,11487.584999995304,,ChainS,,,,,,,,nodeB8
8,UBC_LB,causal-graph1,326693,female,34,English,United States of America,Left,R569469527430gxrw,1.0,9686.654999968596,,AND_Gate,Unrolled,Bottom,Circles,State,B,,A,nodeA22
8,RBC_LB,causal-graph3,337155,female,34,English,United States of America,Left,R569469527430gxrw,1.0,1560.9399999957532,,AND_Gate,Rolled,Bottom,Circles,State,B,,A,nodeA4
8,UBBS_LB,causal-graph1,347281,female,34,English,United States of America,Left,R569469527430gxrw,1.0,8855.70000007283,,AND_Gate,Unrolled,Bottom,Squares,Event,,B,B,nodeA36
8,UAAC_LT,causal-graph1,360128,female,34,English,United States of America,Left,R569469527430gxrw,1.0,11636.775000020862,,AND_Gate,Unrolled,Top,Circles,Event,,A,A,nodeB6
8,UABS_LT,causal-graph1,374813,female,34,English,United States of America,Left,R569469527430gxrw,1.0,13610.104999970645,,AND_Gate,Unrolled,Top,Squares,Event,,A,B,nodeA6
8,RAAC_LT,causal-graph3,386641,female,34,English,United States of America,Left,R569469527430gxrw,1.0,1420.6349999876693,,AND_Gate,Rolled,Top,Circles,Event,,A,A,nodeB6
8,UBAC_LT,causal-graph1,397943,female,34,English,United States of America,Left,R569469527430gxrw,1.0,10338.205000036396,,AND_Gate,Unrolled,Top,Circles,Event,,B,A,nodeB3
8,instruction,causal-graph1,399916,female,34,English,United States of America,Left,R569469527430gxrw,,,,,,,,,,,,
8,comment,survey-text,403171,female,34,English,United States of America,Left,R569469527430gxrw,,3249.089999939315,"{""Q0"":""""}",,,,,,,,,
9,instruction,causal-graph1,8779,female,29,English,United States of America,Right,R564525917950gxrw,,,,,,,,,,,,
9,instruction,causal-graph1,10633,female,29,English,United States of America,Right,R564525917950gxrw,,,,,,,,,,,,
9,instruction,causal-graph1,20640,female,29,English,United States of America,Right,R564525917950gxrw,2.0,,,,,,,,,,,
9,instruction,causal-graph1,22188,female,29,English,United States of America,Right,R564525917950gxrw,,,,,,,,,,,,
9,instruction,causal-graph1,23469,female,29,English,United States of America,Right,R564525917950gxrw,,,,,,,,,,,,
9,instruction,causal-graph1,33868,female,29,English,United States of America,Right,R564525917950gxrw,1.0,,,,,,,,,,,
9,instruction,causal-graph1,35155,female,29,English,United States of America,Right,R564525917950gxrw,,,,,,,,,,,,
9,instruction,causal-graph1,44884,female,29,English,United States of America,Right,R564525917950gxrw,1.0,,,,,,,,,,,
9,instruction,causal-graph3,53396,female,29,English,United States of America,Right,R564525917950gxrw,1.0,,,,,,,,,,,
9,instruction,causal-graph1,54610,female,29,English,United States of America,Right,R564525917950gxrw,,,,,,,,,,,,
9,instruction,causal-graph1,59355,female,29,English,United States of America,Right,R564525917950gxrw,,,,,,,,,,,,
9,instruction,causal-graph1,64563,female,29,English,United States of America,Right,R564525917950gxrw,,,,,,,,,,,,
9,instruction,survey-multi-choice,155196,female,29,English,United States of America,Right,R564525917950gxrw,,,"{""Q0"":"" To decide what caused the activation of G"",""Q1"":"" A detector becomes active if it absorbs a radioactive particle or receives input from an active detector"",""Q2"":"" G becomes active if all of its inputs are active"",""Q3"":"" Square detectors maintain their activation over time but round detectors do not""}",,,,,,,,,
9,instruction,causal-graph1,158081,female,29,English,United States of America,Right,R564525917950gxrw,,,,,,,,,,,,
9,chainS_R,causal-graph1,197149,female,29,English,United States of America,Right,R564525917950gxrw,1.0,11095.60500000953,,ChainS,,,,,,,,nodeB9
9,UAAC_RB,causal-graph1,222469,female,29,English,United States of America,Right,R564525917950gxrw,2.0,12357.079999987036,,AND_Gate,Unrolled,Bottom,Circles,Event,,A,A,nodeA6
9,RAC_RT,causal-graph3,283198,female,29,English,United States of America,Right,R564525917950gxrw,4.0,8640.755000000354,,AND_Gate,Rolled,Top,Circles,State,A,,A,nodeB7
9,UBS_RB,causal-graph1,297612,female,29,English,United States of America,Right,R564525917950gxrw,1.0,10318.390000000363,,AND_Gate,Unrolled,Bottom,Squares,State,B,,A,nodeA20
9,UABS_RB,causal-graph1,328805,female,29,English,United States of America,Right,R564525917950gxrw,2.0,14411.839999986114,,AND_Gate,Unrolled,Bottom,Squares,Event,,A,B,nodeB7
9,UAAS_RT,causal-graph1,343803,female,29,English,United States of America,Right,R564525917950gxrw,1.0,11154.750000016065,,AND_Gate,Unrolled,Top,Squares,Event,,A,A,nodeA7
9,UAS_RT,causal-graph1,355126,female,29,English,United States of America,Right,R564525917950gxrw,1.0,9420.444999996109,,AND_Gate,Unrolled,Top,Squares,State,A,,B,nodeB7
9,UBC_RT,causal-graph1,375477,female,29,English,United States of America,Right,R564525917950gxrw,2.0,9659.054999996442,,AND_Gate,Unrolled,Top,Circles,State,B,,A,nodeA20
9,UBAC_RT,causal-graph1,399159,female,29,English,United States of America,Right,R564525917950gxrw,2.0,11118.369999981953,,AND_Gate,Unrolled,Top,Circles,Event,,B,A,nodeA20
9,RBC_RB,causal-graph3,421189,female,29,English,United States of America,Right,R564525917950gxrw,2.0,2227.6100000017323,,AND_Gate,Rolled,Bottom,Circles,State,B,,A,nodeA4
9,RAAC_RT,causal-graph3,650372,female,29,English,United States of America,Right,R564525917950gxrw,3.0,1819.744999986142,,AND_Gate,Rolled,Top,Circles,Event,,A,A,nodeA6
9,UBBS_RB,causal-graph1,671675,female,29,English,United States of America,Right,R564525917950gxrw,1.0,11302.465000015218,,AND_Gate,Unrolled,Bottom,Squares,Event,,B,B,nodeB2
9,RBAC_RT,causal-graph3,695172,female,29,English,United States of America,Right,R564525917950gxrw,2.0,2116.2350000231527,,AND_Gate,Rolled,Top,Circles,Event,,B,A,nodeA18
9,chainC_RT,causal-graph1,743702,female,29,English,United States of America,Right,R564525917950gxrw,3.0,28964.00999999605,,ChainC,,Top,,,,,,nodeA26
9,UBAS_RB,causal-graph1,775486,female,29,English,United States of America,Right,R564525917950gxrw,1.0,18677.014999993844,,AND_Gate,Unrolled,Bottom,Squares,Event,,B,A,nodeA20
9,instruction,causal-graph1,777109,female,29,English,United States of America,Right,R564525917950gxrw,,,,,,,,,,,,
9,comment,survey-text,802740,female,29,English,United States of America,Right,R564525917950gxrw,,25483.81500001415,"{""Q0"":""Nice task.""}",,,,,,,,,
10,instruction,causal-graph1,51928,male,28,english,Australia,Right,R569214097920gxrw,,,,,,,,,,,,
10,instruction,causal-graph1,65448,male,28,english,Australia,Right,R569214097920gxrw,,,,,,,,,,,,
10,instruction,causal-graph1,170861,male,28,english,Australia,Right,R569214097920gxrw,1.0,,,,,,,,,,,
10,instruction,causal-graph1,272012,male,28,english,Australia,Right,R569214097920gxrw,,,,,,,,,,,,
10,instruction,causal-graph1,331068,male,28,english,Australia,Right,R569214097920gxrw,,,,,,,,,,,,
10,instruction,causal-graph1,378174,male,28,english,Australia,Right,R569214097920gxrw,1.0,,,,,,,,,,,
10,instruction,causal-graph1,430310,male,28,english,Australia,Right,R569214097920gxrw,,,,,,,,,,,,
10,instruction,causal-graph1,525743,male,28,english,Australia,Right,R569214097920gxrw,1.0,,,,,,,,,,,
10,instruction,causal-graph3,585440,male,28,english,Australia,Right,R569214097920gxrw,1.0,,,,,,,,,,,
10,instruction,causal-graph1,636196,male,28,english,Australia,Right,R569214097920gxrw,,,,,,,,,,,,
10,instruction,causal-graph1,649125,male,28,english,Australia,Right,R569214097920gxrw,,,,,,,,,,,,
10,instruction,causal-graph1,657373,male,28,english,Australia,Right,R569214097920gxrw,,,,,,,,,,,,
10,instruction,survey-multi-choice,697201,male,28,english,Australia,Right,R569214097920gxrw,,,"{""Q0"":"" To decide what caused the activation of G"",""Q1"":"" A detector becomes active if it absorbs a radioactive particle"",""Q2"":"" G becomes active if all of its inputs are active"",""Q3"":"" Round detectors maintain their activation over time but square detectors do not""}",,,,,,,,,
10,instruction,causal-graph1,701170,male,28,english,Australia,Right,R569214097920gxrw,,,,,,,,,,,,
10,instruction,causal-graph1,703390,male,28,english,Australia,Right,R569214097920gxrw,,,,,,,,,,,,
10,instruction,causal-graph1,705710,male,28,english,Australia,Right,R569214097920gxrw,,,,,,,,,,,,
10,instruction,causal-graph1,726059,male,28,english,Australia,Right,R569214097920gxrw,1.0,,,,,,,,,,,
10,instruction,causal-graph1,727348,male,28,english,Australia,Right,R569214097920gxrw,,,,,,,,,,,,
10,instruction,causal-graph1,729168,male,28,english,Australia,Right,R569214097920gxrw,,,,,,,,,,,,
10,instruction,causal-graph1,740737,male,28,english,Australia,Right,R569214097920gxrw,1.0,,,,,,,,,,,
10,instruction,causal-graph1,743202,male,28,english,Australia,Right,R569214097920gxrw,,,,,,,,,,,,
10,instruction,causal-graph1,754767,male,28,english,Australia,Right,R569214097920gxrw,1.0,,,,,,,,,,,
10,instruction,causal-graph3,776305,male,28,english,Australia,Right,R569214097920gxrw,1.0,,,,,,,,,,,
10,instruction,causal-graph1,778664,male,28,english,Australia,Right,R569214097920gxrw,,,,,,,,,,,,
10,instruction,causal-graph1,780554,male,28,english,Australia,Right,R569214097920gxrw,,,,,,,,,,,,
10,instruction,causal-graph1,782274,male,28,english,Australia,Right,R569214097920gxrw,,,,,,,,,,,,
10,instruction,survey-multi-choice,801754,male,28,english,Australia,Right,R569214097920gxrw,,,"{""Q0"":"" To decide what caused the activation of G"",""Q1"":"" A detector becomes active if it absorbs a radioactive particle"",""Q2"":"" G becomes active if all of its inputs are active"",""Q3"":"" Round detectors transmit activation but square detectors do not""}",,,,,,,,,
10,instruction,causal-graph1,837830,male,28,english,Australia,Right,R569214097920gxrw,,,,,,,,,,,,
10,instruction,causal-graph1,840210,male,28,english,Australia,Right,R569214097920gxrw,,,,,,,,,,,,
10,instruction,causal-graph1,844620,male,28,english,Australia,Right,R569214097920gxrw,,,,,,,,,,,,
10,instruction,causal-graph1,856318,male,28,english,Australia,Right,R569214097920gxrw,1.0,,,,,,,,,,,
10,instruction,causal-graph1,908955,male,28,english,Australia,Right,R569214097920gxrw,,,,,,,,,,,,
10,instruction,causal-graph1,916564,male,28,english,Australia,Right,R569214097920gxrw,,,,,,,,,,,,
10,instruction,causal-graph1,927174,male,28,english,Australia,Right,R569214097920gxrw,1.0,,,,,,,,,,,
10,instruction,causal-graph1,934873,male,28,english,Australia,Right,R569214097920gxrw,,,,,,,,,,,,
10,instruction,causal-graph1,941632,male,28,english,Australia,Right,R569214097920gxrw,1.0,,,,,,,,,,,
10,instruction,causal-graph3,948582,male,28,english,Australia,Right,R569214097920gxrw,1.0,,,,,,,,,,,
10,instruction,causal-graph1,949632,male,28,english,Australia,Right,R569214097920gxrw,,,,,,,,,,,,
10,instruction,causal-graph1,951272,male,28,english,Australia,Right,R569214097920gxrw,,,,,,,,,,,,
10,instruction,causal-graph1,952801,male,28,english,Australia,Right,R569214097920gxrw,,,,,,,,,,,,
10,instruction,survey-multi-choice,1124511,male,28,english,Australia,Right,R569214097920gxrw,,,"{""Q0"":"" To decide what caused the activation of G"",""Q1"":"" A detector becomes active if it absorbs a radioactive particle"",""Q2"":"" G becomes active if all of its inputs are active"",""Q3"":"" Square detectors maintain their activation over time but round detectors do not""}",,,,,,,,,
10,instruction,causal-graph1,1127338,male,28,english,Australia,Right,R569214097920gxrw,,,,,,,,,,,,
10,instruction,causal-graph1,1129838,male,28,english,Australia,Right,R569214097920gxrw,,,,,,,,,,,,
10,instruction,causal-graph1,1138948,male,28,english,Australia,Right,R569214097920gxrw,,,,,,,,,,,,
10,instruction,causal-graph1,1157412,male,28,english,Australia,Right,R569214097920gxrw,1.0,,,,,,,,,,,
10,instruction,causal-graph1,1159017,male,28,english,Australia,Right,R569214097920gxrw,,,,,,,,,,,,
10,instruction,causal-graph1,1214383,male,28,english,Australia,Right,R569214097920gxrw,,,,,,,,,,,,
10,instruction,causal-graph1,1221652,male,28,english,Australia,Right,R569214097920gxrw,1.0,,,,,,,,,,,
10,instruction,causal-graph1,1223252,male,28,english,Australia,Right,R569214097920gxrw,,,,,,,,,,,,
10,instruction,causal-graph1,1229702,male,28,english,Australia,Right,R569214097920gxrw,1.0,,,,,,,,,,,
10,instruction,causal-graph3,1236831,male,28,english,Australia,Right,R569214097920gxrw,1.0,,,,,,,,,,,
10,instruction,causal-graph1,1238101,male,28,english,Australia,Right,R569214097920gxrw,,,,,,,,,,,,
10,instruction,causal-graph1,1239461,male,28,english,Australia,Right,R569214097920gxrw,,,,,,,,,,,,
10,instruction,causal-graph1,1240791,male,28,english,Australia,Right,R569214097920gxrw,,,,,,,,,,,,
10,instruction,survey-multi-choice,1256771,male,28,english,Australia,Right,R569214097920gxrw,,,"{""Q0"":"" To decide what caused the activation of G"",""Q1"":"" A detector becomes active if it absorbs a radioactive particle or receives input from an active detector"",""Q2"":"" G becomes active if all of its inputs are active"",""Q3"":"" Square detectors maintain their activation over time but round detectors do not""}",,,,,,,,,
10,instruction,causal-graph1,1261889,male,28,english,Australia,Right,R569214097920gxrw,,,,,,,,,,,,
10,RBAC_RB,causal-graph3,1325559,male,28,english,Australia,Right,R569214097920gxrw,2.0,33348.68999989703,,AND_Gate,Rolled,Bottom,Circles,Event,,B,A,nodeB1
10,chainS_R,causal-graph1,1338864,male,28,english,Australia,Right,R569214097920gxrw,1.0,9095.46500002034,,ChainS,,,,,,,,nodeB9
10,UAS_RB,causal-graph1,1351284,male,28,english,Australia,Right,R569214097920gxrw,1.0,8864.994999952614,,AND_Gate,Unrolled,Bottom,Squares,State,A,,B,nodeB7
10,UBBS_RT,causal-graph1,1372932,male,28,english,Australia,Right,R569214097920gxrw,1.0,18734.424999915063,,AND_Gate,Unrolled,Top,Squares,Event,,B,B,nodeB2
10,RAC_RT,causal-graph3,1419708,male,28,english,Australia,Right,R569214097920gxrw,1.0,2635.9200000297283,,AND_Gate,Rolled,Top,Circles,State,A,,A,nodeB20
10,UBAS_RB,causal-graph1,1435006,male,28,english,Australia,Right,R569214097920gxrw,1.0,13182.409999892117,,AND_Gate,Unrolled,Bottom,Squares,Event,,B,A,nodeB4
10,UAAS_RB,causal-graph1,1465835,male,28,english,Australia,Right,R569214097920gxrw,1.0,15326.300000073388,,AND_Gate,Unrolled,Bottom,Squares,Event,,A,A,nodeB20
10,UBS_RB,causal-graph1,1479163,male,28,english,Australia,Right,R569214097920gxrw,1.0,11035.600000061097,,AND_Gate,Unrolled,Bottom,Squares,State,B,,A,nodeB20
10,UBAC_RB,causal-graph1,1492973,male,28,english,Australia,Right,R569214097920gxrw,1.0,11583.495000144469,,AND_Gate,Unrolled,Bottom,Circles,Event,,B,A,nodeB20
10,chainC_RB,causal-graph1,1507816,male,28,english,Australia,Right,R569214097920gxrw,1.0,13019.68999998644,,ChainC,,Bottom,,,,,,nodeB20
10,UBC_RB,causal-graph1,1529889,male,28,english,Australia,Right,R569214097920gxrw,1.0,18321.169999893755,,AND_Gate,Unrolled,Bottom,Circles,State,B,,A,nodeB19
10,RBC_RB,causal-graph3,1586416,male,28,english,Australia,Right,R569214097920gxrw,1.0,31584.419999970123,,AND_Gate,Rolled,Bottom,Circles,State,B,,A,nodeB20
10,UABS_RB,causal-graph1,1603184,male,28,english,Australia,Right,R569214097920gxrw,1.0,12285.454999888316,,AND_Gate,Unrolled,Bottom,Squares,Event,,A,B,nodeB20
10,UAAC_RT,causal-graph1,1627783,male,28,english,Australia,Right,R569214097920gxrw,1.0,18484.45999994874,,AND_Gate,Unrolled,Top,Circles,Event,,A,A,nodeB20
10,RAAC_RB,causal-graph3,1688219,male,28,english,Australia,Right,R569214097920gxrw,1.0,23924.150000093505,,AND_Gate,Rolled,Bottom,Circles,Event,,A,A,nodeB20
10,instruction,causal-graph1,1710216,male,28,english,Australia,Right,R569214097920gxrw,,,,,,,,,,,,
10,comment,survey-text,1712827,male,28,english,Australia,Right,R569214097920gxrw,,2601.110000163317,"{""Q0"":""""}",,,,,,,,,
11,instruction,causal-graph1,3966,male,26,English,United States of America,Right,R566859637750gxrw,,,,,,,,,,,,
11,instruction,causal-graph1,7258,male,26,English,United States of America,Right,R566859637750gxrw,,,,,,,,,,,,
11,instruction,causal-graph1,20674,male,26,English,United States of America,Right,R566859637750gxrw,1.0,,,,,,,,,,,
11,instruction,causal-graph1,28938,male,26,English,United States of America,Right,R566859637750gxrw,,,,,,,,,,,,
11,instruction,causal-graph1,33131,male,26,English,United States of America,Right,R566859637750gxrw,,,,,,,,,,,,
11,instruction,causal-graph1,52702,male,26,English,United States of America,Right,R566859637750gxrw,1.0,,,,,,,,,,,
11,instruction,causal-graph1,54893,male,26,English,United States of America,Right,R566859637750gxrw,,,,,,,,,,,,
11,instruction,causal-graph1,65413,male,26,English,United States of America,Right,R566859637750gxrw,1.0,,,,,,,,,,,
11,instruction,causal-graph3,73236,male,26,English,United States of America,Right,R566859637750gxrw,1.0,,,,,,,,,,,
11,instruction,causal-graph1,75319,male,26,English,United States of America,Right,R566859637750gxrw,,,,,,,,,,,,
11,instruction,causal-graph1,77982,male,26,English,United States of America,Right,R566859637750gxrw,,,,,,,,,,,,
11,instruction,causal-graph1,83839,male,26,English,United States of America,Right,R566859637750gxrw,,,,,,,,,,,,
11,instruction,survey-multi-choice,129672,male,26,English,United States of America,Right,R566859637750gxrw,,,"{""Q0"":"" To decide what caused the activation of G"",""Q1"":"" A detector becomes active if it absorbs a radioactive particle or receives input from an active detector"",""Q2"":"" G becomes active if it absorbs a radioactive particle"",""Q3"":"" Square detectors maintain their activation over time but round detectors do not""}",,,,,,,,,
11,instruction,causal-graph1,132543,male,26,English,United States of America,Right,R566859637750gxrw,,,,,,,,,,,,
11,instruction,causal-graph1,136585,male,26,English,United States of America,Right,R566859637750gxrw,,,,,,,,,,,,
11,instruction,causal-graph1,139514,male,26,English,United States of America,Right,R566859637750gxrw,,,,,,,,,,,,
11,instruction,causal-graph1,146415,male,26,English,United States of America,Right,R566859637750gxrw,1.0,,,,,,,,,,,
11,instruction,causal-graph1,150996,male,26,English,United States of America,Right,R566859637750gxrw,,,,,,,,,,,,
11,instruction,causal-graph1,151712,male,26,English,United States of America,Right,R566859637750gxrw,,,,,,,,,,,,
11,instruction,causal-graph1,159626,male,26,English,United States of America,Right,R566859637750gxrw,1.0,,,,,,,,,,,
11,instruction,causal-graph1,165176,male,26,English,United States of America,Right,R566859637750gxrw,,,,,,,,,,,,
11,instruction,causal-graph1,179057,male,26,English,United States of America,Right,R566859637750gxrw,1.0,,,,,,,,,,,
11,instruction,causal-graph3,188960,male,26,English,United States of America,Right,R566859637750gxrw,1.0,,,,,,,,,,,
11,instruction,causal-graph1,192106,male,26,English,United States of America,Right,R566859637750gxrw,,,,,,,,,,,,
11,instruction,causal-graph1,193305,male,26,English,United States of America,Right,R566859637750gxrw,,,,,,,,,,,,
11,instruction,causal-graph1,196190,male,26,English,United States of America,Right,R566859637750gxrw,,,,,,,,,,,,
