subject_id,rt,stimulus,trial_type,time_elapsed,gender,age,language,country,sampling,turkcode,nb_of_run,responses,stim_type,length,state_OR_event,branch_first,time_interval,node_selected
1,,instruction,image-button-response,16783,male,29,English,United States of America,Right,R568084887600gxrw,,,,,,,,
1,,instruction,causal-graph1,30108,male,29,English,United States of America,Right,R568084887600gxrw,,,,,,,,
1,,instruction,causal-graph1,139781,male,29,English,United States of America,Right,R568084887600gxrw,1.0,,,,,,,
1,,instruction,causal-graph1,142755,male,29,English,United States of America,Right,R568084887600gxrw,,,,,,,,
1,,instruction,causal-graph1,330315,male,29,English,United States of America,Right,R568084887600gxrw,2.0,,,,,,,
1,,instruction,image-button-response,338613,male,29,English,United States of America,Right,R568084887600gxrw,,,,,,,,
1,,instruction,survey-multi-choice,358417,male,29,English,United States of America,Right,R568084887600gxrw,,"{""Q0"":"" To decide what caused the activation of the GCM"",""Q1"":"" A GCM is a square marked with a star"",""Q2"":"" A GCM becomes active if all of its inputs are active"",""Q3"":"" You should click on just one detector in each network""}",,,,,,
1,,instruction,image-button-response,362438,male,29,English,United States of America,Right,R568084887600gxrw,,,,,,,,
1,22620.305000105873,chain_RL,causal-graph1,391709,male,29,English,United States of America,Right,R568084887600gxrw,1.0,,Chain,Long,,,,node7
1,23863.119999878112,branch_RTLE1,causal-graph1,422346,male,29,English,United States of America,Right,R568084887600gxrw,1.0,,AND_Gate,Long,Event,Top,Short,node12
1,10390.47500002198,branch_RBSS,causal-graph1,442594,male,29,English,United States of America,Right,R568084887600gxrw,1.0,,AND_Gate,Short,State,Bottom,,node15
1,14482.459999853745,branch_RTSE3,causal-graph1,464006,male,29,English,United States of America,Right,R568084887600gxrw,1.0,,AND_Gate,Short,Event,Top,Long,node14
1,30929.864999838173,branch_RTLE2,causal-graph1,505246,male,29,English,United States of America,Right,R568084887600gxrw,1.0,,AND_Gate,Long,Event,Top,Medium,node14
1,30747.454999946054,chain_RM,causal-graph1,541167,male,29,English,United States of America,Right,R568084887600gxrw,1.0,,Chain,Medium,,,,node7
1,15376.404999988154,branch_RBME1,causal-graph1,560736,male,29,English,United States of America,Right,R568084887600gxrw,1.0,,AND_Gate,Medium,Event,Bottom,Short,node14
1,17772.184999892488,branch_RTSE1,causal-graph1,584776,male,29,English,United States of America,Right,R568084887600gxrw,1.0,,AND_Gate,Short,Event,Top,Short,node14
1,19074.565000133593,branch_RTME2,causal-graph1,606806,male,29,English,United States of America,Right,R568084887600gxrw,1.0,,AND_Gate,Medium,Event,Top,Medium,node7
1,13810.864999890327,branch_RTLS,causal-graph1,623734,male,29,English,United States of America,Right,R568084887600gxrw,1.0,,AND_Gate,Long,State,Top,,node7
1,18807.154999813065,branch_RTLE3,causal-graph1,645926,male,29,English,United States of America,Right,R568084887600gxrw,1.0,,AND_Gate,Long,Event,Top,Long,node15
1,11859.489999944344,branch_RTMS,causal-graph1,673408,male,29,English,United States of America,Right,R568084887600gxrw,1.0,,AND_Gate,Medium,State,Top,,node14
1,12609.46499998681,branch_RTSE2,causal-graph1,723584,male,29,English,United States of America,Right,R568084887600gxrw,1.0,,AND_Gate,Short,Event,Top,Medium,node7
1,12595.985000021756,chain_RS,causal-graph1,740183,male,29,English,United States of America,Right,R568084887600gxrw,1.0,,Chain,Short,,,,node8
1,171543.4899998363,branch_RTME3,causal-graph1,915063,male,29,English,United States of America,Right,R568084887600gxrw,1.0,,AND_Gate,Medium,Event,Top,Long,node14
1,,instruction,image-button-response,922434,male,29,English,United States of America,Right,R568084887600gxrw,,,,,,,,
1,140711.45499986596,comment,survey-text,1063174,male,29,English,United States of America,Right,R568084887600gxrw,,"{""Q0"":""thankyou""}",,,,,,
2,,instruction,image-button-response,14661,male,33,english,United States of America,Left,R564700337210gxrw,,,,,,,,
2,,instruction,causal-graph1,26619,male,33,english,United States of America,Left,R564700337210gxrw,,,,,,,,
2,,instruction,causal-graph1,45604,male,33,english,United States of America,Left,R564700337210gxrw,1.0,,,,,,,
2,,instruction,causal-graph1,48951,male,33,english,United States of America,Left,R564700337210gxrw,,,,,,,,
2,,instruction,causal-graph1,192110,male,33,english,United States of America,Left,R564700337210gxrw,2.0,,,,,,,
2,,instruction,image-button-response,204510,male,33,english,United States of America,Left,R564700337210gxrw,,,,,,,,
2,,instruction,survey-multi-choice,270660,male,33,english,United States of America,Left,R564700337210gxrw,,"{""Q0"":"" To decide what caused the activation of the GCM"",""Q1"":""A GCM is a square without any mark"",""Q2"":"" A GCM becomes active if all of its inputs are active"",""Q3"":"" You should click on just one detector in each network""}",,,,,,
2,,instruction,image-button-response,273269,male,33,english,United States of America,Left,R564700337210gxrw,,,,,,,,
2,,instruction,image-button-response,276119,male,33,english,United States of America,Left,R564700337210gxrw,,,,,,,,
2,,instruction,causal-graph1,609539,male,33,english,United States of America,Left,R564700337210gxrw,,,,,,,,
2,,instruction,causal-graph1,645472,male,33,english,United States of America,Left,R564700337210gxrw,1.0,,,,,,,
2,,instruction,causal-graph1,647372,male,33,english,United States of America,Left,R564700337210gxrw,,,,,,,,
2,,instruction,causal-graph1,731365,male,33,english,United States of America,Left,R564700337210gxrw,1.0,,,,,,,
2,,instruction,image-button-response,732894,male,33,english,United States of America,Left,R564700337210gxrw,,,,,,,,
2,,instruction,survey-multi-choice,809663,male,33,english,United States of America,Left,R564700337210gxrw,,"{""Q0"":"" To find out if the Gauge of Critical Moment (GCM) is activated or not"",""Q1"":"" A GCM is a square marked with a star"",""Q2"":"" A GCM becomes active if at least one of its inputs is active"",""Q3"":"" You should assign a number to every detector in every network""}",,,,,,
2,,instruction,image-button-response,813193,male,33,english,United States of America,Left,R564700337210gxrw,,,,,,,,
2,,instruction,image-button-response,819153,male,33,english,United States of America,Left,R564700337210gxrw,,,,,,,,
2,,instruction,causal-graph1,821397,male,33,english,United States of America,Left,R564700337210gxrw,,,,,,,,
2,,instruction,causal-graph1,875504,male,33,english,United States of America,Left,R564700337210gxrw,1.0,,,,,,,
2,,instruction,causal-graph1,918091,male,33,english,United States of America,Left,R564700337210gxrw,,,,,,,,
2,,instruction,causal-graph1,952557,male,33,english,United States of America,Left,R564700337210gxrw,1.0,,,,,,,
2,,instruction,image-button-response,957597,male,33,english,United States of America,Left,R564700337210gxrw,,,,,,,,
2,,instruction,survey-multi-choice,978931,male,33,english,United States of America,Left,R564700337210gxrw,,"{""Q0"":"" To find out if the Gauge of Critical Moment (GCM) is activated or not"",""Q1"":"" A GCM is a square marked with a star"",""Q2"":"" A GCM becomes active if all of its inputs are active"",""Q3"":"" You should assign a number to every detector in every network""}",,,,,,
2,,instruction,image-button-response,981415,male,33,english,United States of America,Left,R564700337210gxrw,,,,,,,,
2,,instruction,image-button-response,982949,male,33,english,United States of America,Left,R564700337210gxrw,,,,,,,,
2,,instruction,causal-graph1,993619,male,33,english,United States of America,Left,R564700337210gxrw,,,,,,,,
2,,instruction,causal-graph1,1007428,male,33,english,United States of America,Left,R564700337210gxrw,1.0,,,,,,,
2,,instruction,causal-graph1,1013907,male,33,english,United States of America,Left,R564700337210gxrw,,,,,,,,
2,,instruction,causal-graph1,1039735,male,33,english,United States of America,Left,R564700337210gxrw,1.0,,,,,,,
2,,instruction,image-button-response,1041375,male,33,english,United States of America,Left,R564700337210gxrw,,,,,,,,
2,,instruction,survey-multi-choice,1090396,male,33,english,United States of America,Left,R564700337210gxrw,,"{""Q0"":"" To decide what caused the activation of the GCM"",""Q1"":"" A GCM is a square marked with a star"",""Q2"":"" A GCM becomes active if all of its inputs are active"",""Q3"":"" You should click on just one detector in each network""}",,,,,,
2,,instruction,image-button-response,1093955,male,33,english,United States of America,Left,R564700337210gxrw,,,,,,,,
2,24884.339999873187,branch_LTLE3,causal-graph1,1144551,male,33,english,United States of America,Left,R564700337210gxrw,2.0,,AND_Gate,Long,Event,Top,Long,node9
2,14610.43499992229,branch_LTSS,causal-graph1,1165178,male,33,english,United States of America,Left,R564700337210gxrw,1.0,,AND_Gate,Short,State,Top,,node9
2,19435.455000028014,branch_LTSE2,causal-graph1,1192762,male,33,english,United States of America,Left,R564700337210gxrw,1.0,,AND_Gate,Short,Event,Top,Medium,node2
2,46211.53500000946,chain_LL,causal-graph1,1244554,male,33,english,United States of America,Left,R564700337210gxrw,1.0,,Chain,Long,,,,node2
2,10857.569999992847,branch_LTSE1,causal-graph1,1267442,male,33,english,United States of America,Left,R564700337210gxrw,1.0,,AND_Gate,Short,Event,Top,Short,node1
2,18057.265000185,branch_LTMS,causal-graph1,1289022,male,33,english,United States of America,Left,R564700337210gxrw,1.0,,AND_Gate,Medium,State,Top,,node2
2,19841.260000132024,branch_LTME1,causal-graph1,1311884,male,33,english,United States of America,Left,R564700337210gxrw,1.0,,AND_Gate,Medium,Event,Top,Short,node9
2,16809.11000003107,branch_LBME3,causal-graph1,1331943,male,33,english,United States of America,Left,R564700337210gxrw,1.0,,AND_Gate,Medium,Event,Bottom,Long,node2
2,10868.255000095814,chain_LM,causal-graph1,1348422,male,33,english,United States of America,Left,R564700337210gxrw,1.0,,Chain,Medium,,,,node2
2,30865.2749999892,branch_LTLE2,causal-graph1,1384954,male,33,english,United States of America,Left,R564700337210gxrw,1.0,,AND_Gate,Long,Event,Top,Medium,node9
2,28076.76500012167,chain_LS,causal-graph1,1417007,male,33,english,United States of America,Left,R564700337210gxrw,1.0,,Chain,Short,,,,node3
2,13220.329999923706,branch_LBLE1,causal-graph1,1433365,male,33,english,United States of America,Left,R564700337210gxrw,1.0,,AND_Gate,Long,Event,Bottom,Short,node8
2,11942.224999889731,branch_LTLS,causal-graph1,1448823,male,33,english,United States of America,Left,R564700337210gxrw,1.0,,AND_Gate,Long,State,Top,,node9
2,12499.779999954626,branch_LBME2,causal-graph1,1462648,male,33,english,United States of America,Left,R564700337210gxrw,1.0,,AND_Gate,Medium,Event,Bottom,Medium,node9
2,13415.074999909848,branch_LBSE3,causal-graph1,1477801,male,33,english,United States of America,Left,R564700337210gxrw,1.0,,AND_Gate,Short,Event,Bottom,Long,node9
2,,instruction,image-button-response,1481106,male,33,english,United States of America,Left,R564700337210gxrw,,,,,,,,
2,5701.594999991357,comment,survey-text,1486820,male,33,english,United States of America,Left,R564700337210gxrw,,"{""Q0"":""noone""}",,,,,,
3,,instruction,image-button-response,21080,male,52,English,United States of America,Right,R569457007290gxrw,,,,,,,,
3,,instruction,causal-graph1,35611,male,52,English,United States of America,Right,R569457007290gxrw,,,,,,,,
3,,instruction,causal-graph1,77073,male,52,English,United States of America,Right,R569457007290gxrw,1.0,,,,,,,
3,,instruction,causal-graph1,145377,male,52,English,United States of America,Right,R569457007290gxrw,,,,,,,,
3,,instruction,causal-graph1,177802,male,52,English,United States of America,Right,R569457007290gxrw,1.0,,,,,,,
3,,instruction,image-button-response,199504,male,52,English,United States of America,Right,R569457007290gxrw,,,,,,,,
3,,instruction,survey-multi-choice,292397,male,52,English,United States of America,Right,R569457007290gxrw,,"{""Q0"":"" To find out if the Gauge of Critical Moment (GCM) is activated or not"",""Q1"":""A GCM is a square without any mark"",""Q2"":"" A GCM becomes active if at least one of its inputs is active"",""Q3"":"" You should click on just one detector in each network""}",,,,,,
3,,instruction,image-button-response,299560,male,52,English,United States of America,Right,R569457007290gxrw,,,,,,,,
3,,instruction,image-button-response,308129,male,52,English,United States of America,Right,R569457007290gxrw,,,,,,,,
3,,instruction,causal-graph1,311777,male,52,English,United States of America,Right,R569457007290gxrw,,,,,,,,
3,,instruction,causal-graph1,324498,male,52,English,United States of America,Right,R569457007290gxrw,1.0,,,,,,,
3,,instruction,causal-graph1,340699,male,52,English,United States of America,Right,R569457007290gxrw,,,,,,,,
3,,instruction,causal-graph1,367184,male,52,English,United States of America,Right,R569457007290gxrw,1.0,,,,,,,
3,,instruction,image-button-response,373941,male,52,English,United States of America,Right,R569457007290gxrw,,,,,,,,
3,,instruction,survey-multi-choice,414886,male,52,English,United States of America,Right,R569457007290gxrw,,"{""Q0"":"" To decide what causes the activation of each detector"",""Q1"":"" A GCM is a square marked with a star"",""Q2"":"" A GCM becomes active if all of its inputs are active"",""Q3"":"" Some detectors are not clickable""}",,,,,,
3,,instruction,image-button-response,416530,male,52,English,United States of America,Right,R569457007290gxrw,,,,,,,,
3,,instruction,image-button-response,417806,male,52,English,United States of America,Right,R569457007290gxrw,,,,,,,,
3,,instruction,causal-graph1,419085,male,52,English,United States of America,Right,R569457007290gxrw,,,,,,,,
3,,instruction,causal-graph1,425145,male,52,English,United States of America,Right,R569457007290gxrw,1.0,,,,,,,
3,,instruction,causal-graph1,426273,male,52,English,United States of America,Right,R569457007290gxrw,,,,,,,,
3,,instruction,causal-graph1,440531,male,52,English,United States of America,Right,R569457007290gxrw,1.0,,,,,,,
3,,instruction,image-button-response,442417,male,52,English,United States of America,Right,R569457007290gxrw,,,,,,,,
3,,instruction,survey-multi-choice,455962,male,52,English,United States of America,Right,R569457007290gxrw,,"{""Q0"":"" To decide what causes the activation of each detector"",""Q1"":"" A GCM is a square marked with a star"",""Q2"":"" A GCM becomes active if all of its inputs are active"",""Q3"":"" You should click on just one detector in each network""}",,,,,,
3,,instruction,image-button-response,457354,male,52,English,United States of America,Right,R569457007290gxrw,,,,,,,,
3,,instruction,image-button-response,458627,male,52,English,United States of America,Right,R569457007290gxrw,,,,,,,,
3,,instruction,causal-graph1,459934,male,52,English,United States of America,Right,R569457007290gxrw,,,,,,,,
3,,instruction,causal-graph1,469153,male,52,English,United States of America,Right,R569457007290gxrw,1.0,,,,,,,
3,,instruction,causal-graph1,470531,male,52,English,United States of America,Right,R569457007290gxrw,,,,,,,,
3,,instruction,causal-graph1,483432,male,52,English,United States of America,Right,R569457007290gxrw,1.0,,,,,,,
3,,instruction,image-button-response,484776,male,52,English,United States of America,Right,R569457007290gxrw,,,,,,,,
3,,instruction,survey-multi-choice,494057,male,52,English,United States of America,Right,R569457007290gxrw,,"{""Q0"":"" To decide what causes the activation of each detector"",""Q1"":"" A GCM is a square marked with a star"",""Q2"":"" A GCM becomes active if all of its inputs are active"",""Q3"":"" You should assign a number to every detector in every network""}",,,,,,
3,,instruction,image-button-response,495432,male,52,English,United States of America,Right,R569457007290gxrw,,,,,,,,
3,,instruction,image-button-response,497473,male,52,English,United States of America,Right,R569457007290gxrw,,,,,,,,
3,,instruction,causal-graph1,498531,male,52,English,United States of America,Right,R569457007290gxrw,,,,,,,,
3,,instruction,causal-graph1,505346,male,52,English,United States of America,Right,R569457007290gxrw,1.0,,,,,,,
3,,instruction,causal-graph1,506799,male,52,English,United States of America,Right,R569457007290gxrw,,,,,,,,
3,,instruction,causal-graph1,525533,male,52,English,United States of America,Right,R569457007290gxrw,1.0,,,,,,,
3,,instruction,image-button-response,540449,male,52,English,United States of America,Right,R569457007290gxrw,,,,,,,,
3,,instruction,survey-multi-choice,624342,male,52,English,United States of America,Right,R569457007290gxrw,,"{""Q0"":"" To decide what causes the activation of each detector"",""Q1"":"" A GCM is a square marked with a star"",""Q2"":"" A GCM can activate itself at any stage"",""Q3"":"" You should click on just one detector in each network""}",,,,,,
3,,instruction,image-button-response,626730,male,52,English,United States of America,Right,R569457007290gxrw,,,,,,,,
3,,instruction,image-button-response,630078,male,52,English,United States of America,Right,R569457007290gxrw,,,,,,,,
3,,instruction,causal-graph1,634471,male,52,English,United States of America,Right,R569457007290gxrw,,,,,,,,
3,,instruction,causal-graph1,644000,male,52,English,United States of America,Right,R569457007290gxrw,1.0,,,,,,,
3,,instruction,causal-graph1,662565,male,52,English,United States of America,Right,R569457007290gxrw,,,,,,,,
3,,instruction,causal-graph1,697008,male,52,English,United States of America,Right,R569457007290gxrw,1.0,,,,,,,
3,,instruction,image-button-response,709523,male,52,English,United States of America,Right,R569457007290gxrw,,,,,,,,
3,,instruction,survey-multi-choice,759737,male,52,English,United States of America,Right,R569457007290gxrw,,"{""Q0"":"" To decide what caused the activation of the GCM"",""Q1"":"" A GCM is a square marked with a star"",""Q2"":"" A GCM becomes active if all of its inputs are active"",""Q3"":"" You should assign a number to every detector in every network""}",,,,,,
3,,instruction,image-button-response,760840,male,52,English,United States of America,Right,R569457007290gxrw,,,,,,,,
3,,instruction,image-button-response,762462,male,52,English,United States of America,Right,R569457007290gxrw,,,,,,,,
3,,instruction,causal-graph1,764899,male,52,English,United States of America,Right,R569457007290gxrw,,,,,,,,
3,,instruction,causal-graph1,779969,male,52,English,United States of America,Right,R569457007290gxrw,1.0,,,,,,,
3,,instruction,causal-graph1,787397,male,52,English,United States of America,Right,R569457007290gxrw,,,,,,,,
3,,instruction,causal-graph1,799146,male,52,English,United States of America,Right,R569457007290gxrw,1.0,,,,,,,
3,,instruction,image-button-response,800767,male,52,English,United States of America,Right,R569457007290gxrw,,,,,,,,
3,,instruction,survey-multi-choice,811088,male,52,English,United States of America,Right,R569457007290gxrw,,"{""Q0"":"" To decide what caused the activation of the GCM"",""Q1"":"" A GCM is a square marked with a star"",""Q2"":"" A GCM becomes active if all of its inputs are active"",""Q3"":"" You should click on just one detector in each network""}",,,,,,
3,,instruction,image-button-response,815708,male,52,English,United States of America,Right,R569457007290gxrw,,,,,,,,
3,34645.99999994971,branch_RTLE2,causal-graph1,858253,male,52,English,United States of America,Right,R569457007290gxrw,1.0,,AND_Gate,Long,Event,Top,Medium,node3
3,22849.099999992177,branch_RTLE3,causal-graph1,901716,male,52,English,United States of America,Right,R569457007290gxrw,2.0,,AND_Gate,Long,Event,Top,Long,node3
3,15994.19999984093,branch_RTME2,causal-graph1,923867,male,52,English,United States of America,Right,R569457007290gxrw,1.0,,AND_Gate,Medium,Event,Top,Medium,node5
3,9012.164999963716,chain_RM,causal-graph1,936587,male,52,English,United States of America,Right,R569457007290gxrw,1.0,,Chain,Medium,,,,node5
3,8867.284999927506,branch_RBSS,causal-graph1,948444,male,52,English,United States of America,Right,R569457007290gxrw,1.0,,AND_Gate,Short,State,Bottom,,node14
3,12904.26500001922,branch_RBLE1,causal-graph1,963613,male,52,English,United States of America,Right,R569457007290gxrw,1.0,,AND_Gate,Long,Event,Bottom,Short,node10
3,13154.289999976752,branch_RTLS,causal-graph1,981867,male,52,English,United States of America,Right,R569457007290gxrw,1.0,,AND_Gate,Long,State,Top,,node10
3,94035.82499991173,branch_RBMS,causal-graph1,1081804,male,52,English,United States of America,Right,R569457007290gxrw,1.0,,AND_Gate,Medium,State,Bottom,,node5
3,15786.030000075698,branch_RTME3,causal-graph1,1100203,male,52,English,United States of America,Right,R569457007290gxrw,1.0,,AND_Gate,Medium,Event,Top,Long,node5
3,13155.950000043958,branch_RTSE3,causal-graph1,1116055,male,52,English,United States of America,Right,R569457007290gxrw,1.0,,AND_Gate,Short,Event,Top,Long,node7
3,9721.164999995379,chain_RL,causal-graph1,1127792,male,52,English,United States of America,Right,R569457007290gxrw,1.0,,Chain,Long,,,,node3
3,9350.429999874903,branch_RTSE1,causal-graph1,1139385,male,52,English,United States of America,Right,R569457007290gxrw,1.0,,AND_Gate,Short,Event,Top,Short,node7
3,10049.069999950008,branch_RTSE2,causal-graph1,1151926,male,52,English,United States of America,Right,R569457007290gxrw,1.0,,AND_Gate,Short,Event,Top,Medium,node7
3,11089.930000016464,branch_RBME1,causal-graph1,1165380,male,52,English,United States of America,Right,R569457007290gxrw,1.0,,AND_Gate,Medium,Event,Bottom,Short,node12
3,10577.354999957606,chain_RS,causal-graph1,1178412,male,52,English,United States of America,Right,R569457007290gxrw,1.0,,Chain,Short,,,,node7
3,,instruction,image-button-response,1185229,male,52,English,United States of America,Right,R569457007290gxrw,,,,,,,,
3,5204.640000127256,comment,survey-text,1190450,male,52,English,United States of America,Right,R569457007290gxrw,,"{""Q0"":""""}",,,,,,
4,,instruction,image-button-response,3476,male,30,English,United States of America,Left,R565583967120gxrw,,,,,,,,
4,,instruction,causal-graph1,5954,male,30,English,United States of America,Left,R565583967120gxrw,,,,,,,,
4,,instruction,causal-graph1,29064,male,30,English,United States of America,Left,R565583967120gxrw,3.0,,,,,,,
4,,instruction,causal-graph1,30602,male,30,English,United States of America,Left,R565583967120gxrw,,,,,,,,
4,,instruction,causal-graph1,46756,male,30,English,United States of America,Left,R565583967120gxrw,1.0,,,,,,,
4,,instruction,image-button-response,49957,male,30,English,United States of America,Left,R565583967120gxrw,,,,,,,,
4,,instruction,survey-multi-choice,61074,male,30,English,United States of America,Left,R565583967120gxrw,,"{""Q0"":"" To decide what caused the activation of the GCM"",""Q1"":"" A GCM is a square marked with a star"",""Q2"":"" A GCM becomes active if all of its inputs are active"",""Q3"":"" You should click on just one detector in each network""}",,,,,,
4,,instruction,image-button-response,62697,male,30,English,United States of America,Left,R565583967120gxrw,,,,,,,,
4,18827.00000000113,branch_LBMS,causal-graph1,144219,male,30,English,United States of America,Left,R565583967120gxrw,3.0,,AND_Gate,Medium,State,Bottom,,node2
4,18465.000000000146,chain_LL,causal-graph1,171669,male,30,English,United States of America,Left,R565583967120gxrw,1.0,,Chain,Long,,,,node2
4,14565.999999998894,branch_LTME2,causal-graph1,199444,male,30,English,United States of America,Left,R565583967120gxrw,1.0,,AND_Gate,Medium,Event,Top,Medium,node10
4,41863.00000000122,branch_LBLE2,causal-graph1,249871,male,30,English,United States of America,Left,R565583967120gxrw,1.0,,AND_Gate,Long,Event,Bottom,Medium,node8
4,16352.999999999129,branch_LBLS,causal-graph1,275587,male,30,English,United States of America,Left,R565583967120gxrw,1.0,,AND_Gate,Long,State,Bottom,,node9
4,39760.00000000204,branch_LTME3,causal-graph1,324305,male,30,English,United States of America,Left,R565583967120gxrw,1.0,,AND_Gate,Medium,Event,Top,Long,node10
4,9218.000000000755,chain_LS,causal-graph1,341908,male,30,English,United States of America,Left,R565583967120gxrw,1.0,,Chain,Short,,,,node2
4,49170.99999999849,branch_LBLE3,causal-graph1,399131,male,30,English,United States of America,Left,R565583967120gxrw,1.0,,AND_Gate,Long,Event,Bottom,Long,node9
4,12735.00000000058,chain_LM,causal-graph1,490593,male,30,English,United States of America,Left,R565583967120gxrw,1.0,,Chain,Medium,,,,node1
4,13406.999999999302,branch_LTSE3,causal-graph1,506751,male,30,English,United States of America,Left,R565583967120gxrw,1.0,,AND_Gate,Short,Event,Top,Long,node12
4,40728.99999999942,branch_LBSE2,causal-graph1,555844,male,30,English,United States of America,Left,R565583967120gxrw,1.0,,AND_Gate,Short,Event,Bottom,Medium,node13
4,15737.999999997555,branch_LBSE1,causal-graph1,573712,male,30,English,United States of America,Left,R565583967120gxrw,1.0,,AND_Gate,Short,Event,Bottom,Short,node11
4,23095.99999999767,branch_LBLE1,causal-graph1,599390,male,30,English,United States of America,Left,R565583967120gxrw,1.0,,AND_Gate,Long,Event,Bottom,Short,node9
4,9349.00000000198,branch_LTSS,causal-graph1,615435,male,30,English,United States of America,Left,R565583967120gxrw,1.0,,AND_Gate,Short,State,Top,,node11
4,48028.9999999986,branch_LBME1,causal-graph1,665278,male,30,English,United States of America,Left,R565583967120gxrw,1.0,,AND_Gate,Medium,Event,Bottom,Short,node11
4,,instruction,image-button-response,666667,male,30,English,United States of America,Left,R565583967120gxrw,,,,,,,,
4,4008.9999999982538,comment,survey-text,670689,male,30,English,United States of America,Left,R565583967120gxrw,,"{""Q0"":""well""}",,,,,,
5,,instruction,image-button-response,3334,male,30,English ,United States of America,Right,R568127437130gxrw,,,,,,,,
5,,instruction,causal-graph1,6019,male,30,English ,United States of America,Right,R568127437130gxrw,,,,,,,,
5,,instruction,causal-graph1,21067,male,30,English ,United States of America,Right,R568127437130gxrw,1.0,,,,,,,
5,,instruction,causal-graph1,24515,male,30,English ,United States of America,Right,R568127437130gxrw,,,,,,,,
5,,instruction,causal-graph1,58985,male,30,English ,United States of America,Right,R568127437130gxrw,2.0,,,,,,,
5,,instruction,image-button-response,61593,male,30,English ,United States of America,Right,R568127437130gxrw,,,,,,,,
5,,instruction,survey-multi-choice,104707,male,30,English ,United States of America,Right,R568127437130gxrw,,"{""Q0"":"" To decide what caused the activation of the GCM"",""Q1"":"" A GCM is a square marked with a star"",""Q2"":"" A GCM becomes active if all of its inputs are active"",""Q3"":"" You should click on just one detector in each network""}",,,,,,
5,,instruction,image-button-response,106665,male,30,English ,United States of America,Right,R568127437130gxrw,,,,,,,,
5,21438.99999999849,branch_RTLE2,causal-graph1,131157,male,30,English ,United States of America,Right,R568127437130gxrw,1.0,,AND_Gate,Long,Event,Top,Medium,node4
5,9771.00000000064,chain_RL,causal-graph1,145026,male,30,English ,United States of America,Right,R568127437130gxrw,1.0,,Chain,Long,,,,node8
5,39728.0000000028,branch_RBLE3,causal-graph1,187635,male,30,English ,United States of America,Right,R568127437130gxrw,1.0,,AND_Gate,Long,Event,Bottom,Long,node12
5,31463.999999999938,branch_RBME2,causal-graph1,222036,male,30,English ,United States of America,Right,R568127437130gxrw,1.0,,AND_Gate,Medium,Event,Bottom,Medium,node6
5,13353.99999999936,branch_RBSE3,causal-graph1,237967,male,30,English ,United States of America,Right,R568127437130gxrw,1.0,,AND_Gate,Short,Event,Bottom,Long,node14
5,18872.999999999596,branch_RTSE1,causal-graph1,261308,male,30,English ,United States of America,Right,R568127437130gxrw,1.0,,AND_Gate,Short,Event,Top,Short,node15
5,33965.000000003776,branch_RTME1,causal-graph1,298103,male,30,English ,United States of America,Right,R568127437130gxrw,1.0,,AND_Gate,Medium,Event,Top,Short,node14
5,18864.999999997963,branch_RBSE2,causal-graph1,319836,male,30,English ,United States of America,Right,R568127437130gxrw,1.0,,AND_Gate,Short,Event,Bottom,Medium,node15
5,9589.999999996508,branch_RTMS,causal-graph1,334406,male,30,English ,United States of America,Right,R568127437130gxrw,1.0,,AND_Gate,Medium,State,Top,,node14
5,7989.000000001396,branch_RBSS,causal-graph1,345308,male,30,English ,United States of America,Right,R568127437130gxrw,1.0,,AND_Gate,Short,State,Bottom,,node7
5,7959.000000002561,chain_RS,causal-graph1,356687,male,30,English ,United States of America,Right,R568127437130gxrw,1.0,,Chain,Short,,,,node7
5,8529.00000000227,chain_RM,causal-graph1,368110,male,30,English ,United States of America,Right,R568127437130gxrw,1.0,,Chain,Medium,,,,node7
5,14773.000000001048,branch_RBME3,causal-graph1,385556,male,30,English ,United States of America,Right,R568127437130gxrw,1.0,,AND_Gate,Medium,Event,Bottom,Long,node7
5,13644.999999996799,branch_RTLE1,causal-graph1,402519,male,30,English ,United States of America,Right,R568127437130gxrw,1.0,,AND_Gate,Long,Event,Top,Short,node13
5,11841.00000000035,branch_RBLS,causal-graph1,417485,male,30,English ,United States of America,Right,R568127437130gxrw,1.0,,AND_Gate,Long,State,Bottom,,node6
5,,instruction,image-button-response,419664,male,30,English ,United States of America,Right,R568127437130gxrw,,,,,,,,
5,6450.0000000043665,comment,survey-text,426140,male,30,English ,United States of America,Right,R568127437130gxrw,,"{""Q0"":""good""}",,,,,,
6,,instruction,image-button-response,4365,male,34,english,United States of America,Right,R563291027570gxrw,,,,,,,,
6,,instruction,causal-graph1,18418,male,34,english,United States of America,Right,R563291027570gxrw,,,,,,,,
6,,instruction,causal-graph1,33634,male,34,english,United States of America,Right,R563291027570gxrw,1.0,,,,,,,
6,,instruction,causal-graph1,37176,male,34,english,United States of America,Right,R563291027570gxrw,,,,,,,,
6,,instruction,causal-graph1,53231,male,34,english,United States of America,Right,R563291027570gxrw,1.0,,,,,,,
6,,instruction,image-button-response,57464,male,34,english,United States of America,Right,R563291027570gxrw,,,,,,,,
6,,instruction,survey-multi-choice,92298,male,34,english,United States of America,Right,R563291027570gxrw,,"{""Q0"":"" To decide what caused the activation of the GCM"",""Q1"":"" A GCM is a square marked with a star"",""Q2"":"" A GCM becomes active if all of its inputs are active"",""Q3"":"" You should click on just one detector in each network""}",,,,,,
6,,instruction,image-button-response,157781,male,34,english,United States of America,Right,R563291027570gxrw,,,,,,,,
6,60479.999999999534,chain_RL,causal-graph1,222436,male,34,english,United States of America,Right,R563291027570gxrw,1.0,,Chain,Long,,,,node6
6,12370.000000002678,chain_RS,causal-graph1,238391,male,34,english,United States of America,Right,R563291027570gxrw,1.0,,Chain,Short,,,,node8
6,16771.000000000582,branch_RTSE2,causal-graph1,258571,male,34,english,United States of America,Right,R563291027570gxrw,1.0,,AND_Gate,Short,Event,Top,Medium,node15
6,35314.99999999866,branch_RTME1,causal-graph1,296826,male,34,english,United States of America,Right,R563291027570gxrw,1.0,,AND_Gate,Medium,Event,Top,Short,node14
6,17476.999999998952,branch_RBSE3,causal-graph1,319110,male,34,english,United States of America,Right,R563291027570gxrw,1.0,,AND_Gate,Short,Event,Bottom,Long,node7
6,28560.00000000128,branch_RTLS,causal-graph1,350553,male,34,english,United States of America,Right,R563291027570gxrw,1.0,,AND_Gate,Long,State,Top,,node6
6,13288.99999999709,branch_RBME2,causal-graph1,367558,male,34,english,United States of America,Right,R563291027570gxrw,1.0,,AND_Gate,Medium,Event,Bottom,Medium,node14
6,28843.0000000007,branch_RTSE1,causal-graph1,399794,male,34,english,United States of America,Right,R563291027570gxrw,1.0,,AND_Gate,Short,Event,Top,Short,node14
6,14583.999999998836,branch_RTMS,causal-graph1,417508,male,34,english,United States of America,Right,R563291027570gxrw,1.0,,AND_Gate,Medium,State,Top,,node14
6,122188.00000000198,branch_RBLE1,causal-graph1,542362,male,34,english,United States of America,Right,R563291027570gxrw,1.0,,AND_Gate,Long,Event,Bottom,Short,node14
6,23518.0,branch_RTLE3,causal-graph1,568870,male,34,english,United States of America,Right,R563291027570gxrw,1.0,,AND_Gate,Long,Event,Top,Long,node14
6,48623.99999999988,chain_RM,causal-graph1,620841,male,34,english,United States of America,Right,R563291027570gxrw,1.0,,Chain,Medium,,,,node7
6,143449.00000000055,branch_RTME3,causal-graph1,765729,male,34,english,United States of America,Right,R563291027570gxrw,1.0,,AND_Gate,Medium,Event,Top,Long,node14
6,13176.99999999965,branch_RTSS,causal-graph1,780924,male,34,english,United States of America,Right,R563291027570gxrw,1.0,,AND_Gate,Short,State,Top,,node14
6,14596.000000001397,branch_RTLE2,causal-graph1,797996,male,34,english,United States of America,Right,R563291027570gxrw,1.0,,AND_Gate,Long,Event,Top,Medium,node7
6,,instruction,image-button-response,802620,male,34,english,United States of America,Right,R563291027570gxrw,,,,,,,,
6,14840.000000000233,comment,survey-text,817490,male,34,english,United States of America,Right,R563291027570gxrw,,"{""Q0"":""very nice study""}",,,,,,
7,,instruction,image-button-response,40614,male,30,English,United States of America,Left,R564578077900gxrw,,,,,,,,
7,,instruction,causal-graph1,43903,male,30,English,United States of America,Left,R564578077900gxrw,,,,,,,,
7,,instruction,causal-graph1,54496,male,30,English,United States of America,Left,R564578077900gxrw,1.0,,,,,,,
7,,instruction,causal-graph1,56382,male,30,English,United States of America,Left,R564578077900gxrw,,,,,,,,
7,,instruction,causal-graph1,70625,male,30,English,United States of America,Left,R564578077900gxrw,1.0,,,,,,,
7,,instruction,image-button-response,72288,male,30,English,United States of America,Left,R564578077900gxrw,,,,,,,,
7,,instruction,survey-multi-choice,82110,male,30,English,United States of America,Left,R564578077900gxrw,,"{""Q0"":"" To find out if the Gauge of Critical Moment (GCM) is activated or not"",""Q1"":"" A GCM is a square marked with a star"",""Q2"":"" A GCM can activate itself at any stage"",""Q3"":"" You should assign a number to every detector in every network""}",,,,,,
7,,instruction,image-button-response,85055,male,30,English,United States of America,Left,R564578077900gxrw,,,,,,,,
7,,instruction,image-button-response,86226,male,30,English,United States of America,Left,R564578077900gxrw,,,,,,,,
7,,instruction,causal-graph1,90391,male,30,English,United States of America,Left,R564578077900gxrw,,,,,,,,
7,,instruction,causal-graph1,100612,male,30,English,United States of America,Left,R564578077900gxrw,1.0,,,,,,,
7,,instruction,causal-graph1,102246,male,30,English,United States of America,Left,R564578077900gxrw,,,,,,,,
7,,instruction,causal-graph1,117223,male,30,English,United States of America,Left,R564578077900gxrw,1.0,,,,,,,
7,,instruction,image-button-response,118874,male,30,English,United States of America,Left,R564578077900gxrw,,,,,,,,
7,,instruction,survey-multi-choice,2339424,male,30,English,United States of America,Left,R564578077900gxrw,,"{""Q0"":"" To decide what caused the activation of the GCM"",""Q1"":"" A GCM is a square marked with a star"",""Q2"":"" A GCM becomes active if all of its inputs are active"",""Q3"":"" You should click on just one detector in each network""}",,,,,,
7,,instruction,image-button-response,2342392,male,30,English,United States of America,Left,R564578077900gxrw,,,,,,,,
7,29129.0,branch_LBLE2,causal-graph1,2376305,male,30,English,United States of America,Left,R564578077900gxrw,1.0,,AND_Gate,Long,Event,Bottom,Medium,node8
7,69795.99999999907,branch_LBSS,causal-graph1,2451072,male,30,English,United States of America,Left,R564578077900gxrw,1.0,,AND_Gate,Short,State,Bottom,,node4
7,11034.000000000933,branch_LBSE2,causal-graph1,2468371,male,30,English,United States of America,Left,R564578077900gxrw,1.0,,AND_Gate,Short,Event,Bottom,Medium,node10
7,19809.000000000466,chain_LS,causal-graph1,2491101,male,30,English,United States of America,Left,R564578077900gxrw,1.0,,Chain,Short,,,,node6
7,46838.0,branch_LBME1,causal-graph1,2541381,male,30,English,United States of America,Left,R564578077900gxrw,1.0,,AND_Gate,Medium,Event,Bottom,Short,node4
7,79734.00000000048,branch_LTMS,causal-graph1,2626085,male,30,English,United States of America,Left,R564578077900gxrw,1.0,,AND_Gate,Medium,State,Top,,node4
7,21089.0,branch_LBME2,causal-graph1,2650341,male,30,English,United States of America,Left,R564578077900gxrw,1.0,,AND_Gate,Medium,Event,Bottom,Medium,node4
7,164645.00000000047,branch_LBLE3,causal-graph1,2820836,male,30,English,United States of America,Left,R564578077900gxrw,1.0,,AND_Gate,Long,Event,Bottom,Long,node2
7,19232.0,branch_LBLE1,causal-graph1,2844238,male,30,English,United States of America,Left,R564578077900gxrw,1.0,,AND_Gate,Long,Event,Bottom,Short,node2
7,9639.999999999069,branch_LTLS,causal-graph1,2857396,male,30,English,United States of America,Left,R564578077900gxrw,1.0,,AND_Gate,Long,State,Top,,node2
7,14616.0,branch_LBME3,causal-graph1,2875929,male,30,English,United States of America,Left,R564578077900gxrw,1.0,,AND_Gate,Medium,Event,Bottom,Long,node3
7,9718.0,chain_LM,causal-graph1,2888588,male,30,English,United States of America,Left,R564578077900gxrw,1.0,,Chain,Medium,,,,node4
7,16263.0,branch_LTSE3,causal-graph1,2912436,male,30,English,United States of America,Left,R564578077900gxrw,1.0,,AND_Gate,Short,Event,Top,Long,node6
7,22523.99999999953,chain_LL,causal-graph1,2937882,male,30,English,United States of America,Left,R564578077900gxrw,1.0,,Chain,Long,,,,node2
7,20087.000000000466,branch_LTSE1,causal-graph1,2962911,male,30,English,United States of America,Left,R564578077900gxrw,1.0,,AND_Gate,Short,Event,Top,Short,node6
7,,instruction,image-button-response,2966006,male,30,English,United States of America,Left,R564578077900gxrw,,,,,,,,
7,9808.0,comment,survey-text,2975873,male,30,English,United States of America,Left,R564578077900gxrw,,"{""Q0"":""this is very very good study""}",,,,,,
8,,instruction,image-button-response,6368,male,26,English,United States of America,Left,R563823157740gxrw,,,,,,,,
8,,instruction,causal-graph1,13706,male,26,English,United States of America,Left,R563823157740gxrw,,,,,,,,
8,,instruction,causal-graph1,49677,male,26,English,United States of America,Left,R563823157740gxrw,1.0,,,,,,,
8,,instruction,causal-graph1,65917,male,26,English,United States of America,Left,R563823157740gxrw,,,,,,,,
8,,instruction,causal-graph1,103504,male,26,English,United States of America,Left,R563823157740gxrw,1.0,,,,,,,
8,,instruction,image-button-response,119729,male,26,English,United States of America,Left,R563823157740gxrw,,,,,,,,
8,,instruction,survey-multi-choice,171418,male,26,English,United States of America,Left,R563823157740gxrw,,"{""Q0"":"" To decide what caused the activation of the GCM"",""Q1"":"" A GCM is a square marked with a star"",""Q2"":"" A GCM becomes active if at least one of its inputs is active"",""Q3"":"" You should click on just one detector in each network""}",,,,,,
8,,instruction,image-button-response,174778,male,26,English,United States of America,Left,R563823157740gxrw,,,,,,,,
8,,instruction,image-button-response,179939,male,26,English,United States of America,Left,R563823157740gxrw,,,,,,,,
8,,instruction,causal-graph1,184615,male,26,English,United States of America,Left,R563823157740gxrw,,,,,,,,
8,,instruction,causal-graph1,202030,male,26,English,United States of America,Left,R563823157740gxrw,1.0,,,,,,,
8,,instruction,causal-graph1,238980,male,26,English,United States of America,Left,R563823157740gxrw,,,,,,,,
8,,instruction,causal-graph1,261819,male,26,English,United States of America,Left,R563823157740gxrw,1.0,,,,,,,
8,,instruction,image-button-response,283180,male,26,English,United States of America,Left,R563823157740gxrw,,,,,,,,
8,,instruction,survey-multi-choice,322532,male,26,English,United States of America,Left,R563823157740gxrw,,"{""Q0"":"" To decide what caused the activation of the GCM"",""Q1"":"" A GCM is a square marked with a star"",""Q2"":"" A GCM becomes active if all of its inputs are active"",""Q3"":"" You should click on just one detector in each network""}",,,,,,
8,,instruction,image-button-response,325903,male,26,English,United States of America,Left,R563823157740gxrw,,,,,,,,
8,17856.00000002887,branch_LBSE1,causal-graph1,349773,male,26,English,United States of America,Left,R563823157740gxrw,1.0,,AND_Gate,Short,Event,Bottom,Short,node14
8,11675.000000046564,branch_LBSE2,causal-graph1,363969,male,26,English,United States of America,Left,R563823157740gxrw,1.0,,AND_Gate,Short,Event,Bottom,Medium,node7
8,11920.00000004191,branch_LTLS,causal-graph1,385370,male,26,English,United States of America,Left,R563823157740gxrw,1.0,,AND_Gate,Long,State,Top,,node10
8,12667.000000015832,branch_LTME1,causal-graph1,402892,male,26,English,United States of America,Left,R563823157740gxrw,1.0,,AND_Gate,Medium,Event,Top,Short,node5
8,8508.000000030734,branch_LBSS,causal-graph1,414294,male,26,English,United States of America,Left,R563823157740gxrw,1.0,,AND_Gate,Short,State,Bottom,,node14
8,9516.99999999255,branch_LBMS,causal-graph1,424990,male,26,English,United States of America,Left,R563823157740gxrw,1.0,,AND_Gate,Medium,State,Bottom,,node12
8,8273.000000044703,chain_LS,causal-graph1,435519,male,26,English,United States of America,Left,R563823157740gxrw,1.0,,Chain,Short,,,,node7
8,13707.999999984168,branch_LBLE1,causal-graph1,450958,male,26,English,United States of America,Left,R563823157740gxrw,1.0,,AND_Gate,Long,Event,Bottom,Short,node10
8,15869.999999995343,branch_LBME3,causal-graph1,468920,male,26,English,United States of America,Left,R563823157740gxrw,1.0,,AND_Gate,Medium,Event,Bottom,Long,node12
8,12430.000000051223,branch_LTME2,causal-graph1,484639,male,26,English,United States of America,Left,R563823157740gxrw,1.0,,AND_Gate,Medium,Event,Top,Medium,node5
8,10729.000000050291,chain_LL,causal-graph1,497396,male,26,English,United States of America,Left,R563823157740gxrw,1.0,,Chain,Long,,,,node3
8,20043.99999999441,branch_LTLE3,causal-graph1,518893,male,26,English,United States of America,Left,R563823157740gxrw,1.0,,AND_Gate,Long,Event,Top,Long,node3
8,9285.999999963678,chain_LM,causal-graph1,530179,male,26,English,United States of America,Left,R563823157740gxrw,1.0,,Chain,Medium,,,,node5
8,15468.999999924563,branch_LTLE2,causal-graph1,547143,male,26,English,United States of America,Left,R563823157740gxrw,1.0,,AND_Gate,Long,Event,Top,Medium,node3
8,16339.000000036322,branch_LBSE3,causal-graph1,577069,male,26,English,United States of America,Left,R563823157740gxrw,1.0,,AND_Gate,Short,Event,Bottom,Long,node14
8,,instruction,image-button-response,580300,male,26,English,United States of America,Left,R563823157740gxrw,,,,,,,,
8,2021.999999997206,comment,survey-text,582368,male,26,English,United States of America,Left,R563823157740gxrw,,"{""Q0"":""""}",,,,,,
9,,instruction,image-button-response,5117,male,30,English,United States of America,Left,R563954487180gxrw,,,,,,,,
9,,instruction,causal-graph1,11508,male,30,English,United States of America,Left,R563954487180gxrw,,,,,,,,
9,,instruction,causal-graph1,24270,male,30,English,United States of America,Left,R563954487180gxrw,1.0,,,,,,,
9,,instruction,causal-graph1,26326,male,30,English,United States of America,Left,R563954487180gxrw,,,,,,,,
9,,instruction,causal-graph1,150603,male,30,English,United States of America,Left,R563954487180gxrw,2.0,,,,,,,
9,,instruction,image-button-response,152551,male,30,English,United States of America,Left,R563954487180gxrw,,,,,,,,
9,,instruction,survey-multi-choice,169458,male,30,English,United States of America,Left,R563954487180gxrw,,"{""Q0"":"" To decide what caused the activation of the GCM"",""Q1"":"" A GCM is a square marked with a star"",""Q2"":"" A GCM becomes active if all of its inputs are active"",""Q3"":"" You should click on just one detector in each network""}",,,,,,
9,,instruction,image-button-response,172965,male,30,English,United States of America,Left,R563954487180gxrw,,,,,,,,
9,22913.000000000466,branch_LTME1,causal-graph1,217123,male,30,English,United States of America,Left,R563954487180gxrw,2.0,,AND_Gate,Medium,Event,Top,Short,node12
9,15936.999999999884,branch_LTME2,causal-graph1,236631,male,30,English,United States of America,Left,R563954487180gxrw,1.0,,AND_Gate,Medium,Event,Top,Medium,node15
9,11404.999999998836,chain_LM,causal-graph1,278563,male,30,English,United States of America,Left,R563954487180gxrw,2.0,,Chain,Medium,,,,node6
9,16958.000000000524,branch_LBME3,causal-graph1,299121,male,30,English,United States of America,Left,R563954487180gxrw,1.0,,AND_Gate,Medium,Event,Bottom,Long,node13
9,14470.999999999534,branch_LBLE1,causal-graph1,329626,male,30,English,United States of America,Left,R563954487180gxrw,2.0,,AND_Gate,Long,Event,Bottom,Short,node15
9,12784.999999999884,branch_LBSS,causal-graph1,348408,male,30,English,United States of America,Left,R563954487180gxrw,1.0,,AND_Gate,Short,State,Bottom,,node15
9,14788.999999998836,branch_LBSE2,causal-graph1,366775,male,30,English,United States of America,Left,R563954487180gxrw,1.0,,AND_Gate,Short,Event,Bottom,Medium,node14
9,18784.999999999767,branch_LTLE2,causal-graph1,443483,male,30,English,United States of America,Left,R563954487180gxrw,2.0,,AND_Gate,Long,Event,Top,Medium,node6
9,11819.000000001279,branch_LTLS,causal-graph1,459632,male,30,English,United States of America,Left,R563954487180gxrw,1.0,,AND_Gate,Long,State,Top,,node13
9,12189.00000000035,branch_LBSE1,causal-graph1,476391,male,30,English,United States of America,Left,R563954487180gxrw,1.0,,AND_Gate,Short,Event,Bottom,Short,node15
9,17100.00000000035,branch_LBSE3,causal-graph1,496569,male,30,English,United States of America,Left,R563954487180gxrw,1.0,,AND_Gate,Short,Event,Bottom,Long,node14
9,10323.000000000351,chain_LL,causal-graph1,510525,male,30,English,United States of America,Left,R563954487180gxrw,1.0,,Chain,Long,,,,node6
9,18201.999999999298,branch_LBLE3,causal-graph1,533631,male,30,English,United States of America,Left,R563954487180gxrw,1.0,,AND_Gate,Long,Event,Bottom,Long,node14
9,12381.99999999965,branch_LBMS,causal-graph1,548530,male,30,English,United States of America,Left,R563954487180gxrw,1.0,,AND_Gate,Medium,State,Bottom,,node13
9,9620.000000000815,chain_LS,causal-graph1,561498,male,30,English,United States of America,Left,R563954487180gxrw,1.0,,Chain,Short,,,,node7
9,,instruction,image-button-response,564336,male,30,English,United States of America,Left,R563954487180gxrw,,,,,,,,
9,49149.99999999965,comment,survey-text,613538,male,30,English,United States of America,Left,R563954487180gxrw,,"{""Q0"":""mabelmartinez713@gmail.com""}",,,,,,
10,,instruction,image-button-response,46263,male,31,english,American Samoa,Left,R561552147430gxrw,,,,,,,,
10,,instruction,causal-graph1,72673,male,31,english,American Samoa,Left,R561552147430gxrw,,,,,,,,
10,,instruction,causal-graph1,146503,male,31,english,American Samoa,Left,R561552147430gxrw,1.0,,,,,,,
10,,instruction,causal-graph1,174056,male,31,english,American Samoa,Left,R561552147430gxrw,,,,,,,,
10,,instruction,causal-graph1,204468,male,31,english,American Samoa,Left,R561552147430gxrw,1.0,,,,,,,
10,,instruction,image-button-response,243270,male,31,english,American Samoa,Left,R561552147430gxrw,,,,,,,,
10,,instruction,survey-multi-choice,346433,male,31,english,American Samoa,Left,R561552147430gxrw,,"{""Q0"":"" To decide what caused the activation of the GCM"",""Q1"":"" A GCM is a square marked with a star"",""Q2"":"" A GCM becomes active if at least one of its inputs is active"",""Q3"":"" Some detectors are not clickable""}",,,,,,
10,,instruction,image-button-response,354751,male,31,english,American Samoa,Left,R561552147430gxrw,,,,,,,,
10,,instruction,image-button-response,363831,male,31,english,American Samoa,Left,R561552147430gxrw,,,,,,,,
10,,instruction,causal-graph1,384224,male,31,english,American Samoa,Left,R561552147430gxrw,,,,,,,,
10,,instruction,causal-graph1,403243,male,31,english,American Samoa,Left,R561552147430gxrw,1.0,,,,,,,
10,,instruction,causal-graph1,420937,male,31,english,American Samoa,Left,R561552147430gxrw,,,,,,,,
10,,instruction,causal-graph1,456053,male,31,english,American Samoa,Left,R561552147430gxrw,1.0,,,,,,,
10,,instruction,image-button-response,483441,male,31,english,American Samoa,Left,R561552147430gxrw,,,,,,,,
10,,instruction,survey-multi-choice,533177,male,31,english,American Samoa,Left,R561552147430gxrw,,"{""Q0"":"" To decide what caused the activation of the GCM"",""Q1"":"" A GCM is a square marked with a star"",""Q2"":"" A GCM becomes active if all of its inputs are active"",""Q3"":"" Some detectors are not clickable""}",,,,,,
10,,instruction,image-button-response,540236,male,31,english,American Samoa,Left,R561552147430gxrw,,,,,,,,
10,,instruction,image-button-response,542836,male,31,english,American Samoa,Left,R561552147430gxrw,,,,,,,,
10,,instruction,causal-graph1,545192,male,31,english,American Samoa,Left,R561552147430gxrw,,,,,,,,
10,,instruction,causal-graph1,553136,male,31,english,American Samoa,Left,R561552147430gxrw,1.0,,,,,,,
10,,instruction,causal-graph1,555395,male,31,english,American Samoa,Left,R561552147430gxrw,,,,,,,,
10,,instruction,causal-graph1,595742,male,31,english,American Samoa,Left,R561552147430gxrw,1.0,,,,,,,
10,,instruction,image-button-response,598792,male,31,english,American Samoa,Left,R561552147430gxrw,,,,,,,,
10,,instruction,survey-multi-choice,739831,male,31,english,American Samoa,Left,R561552147430gxrw,,"{""Q0"":"" To decide what caused the activation of the GCM"",""Q1"":"" A GCM is a square marked with a star"",""Q2"":"" A GCM becomes active if all of its inputs are active"",""Q3"":"" You should assign a number to every detector in every network""}",,,,,,
10,,instruction,image-button-response,758282,male,31,english,American Samoa,Left,R561552147430gxrw,,,,,,,,
10,,instruction,image-button-response,765245,male,31,english,American Samoa,Left,R561552147430gxrw,,,,,,,,
10,,instruction,causal-graph1,772344,male,31,english,American Samoa,Left,R561552147430gxrw,,,,,,,,
10,,instruction,causal-graph1,786144,male,31,english,American Samoa,Left,R561552147430gxrw,1.0,,,,,,,
10,,instruction,causal-graph1,788363,male,31,english,American Samoa,Left,R561552147430gxrw,,,,,,,,
10,,instruction,causal-graph1,804206,male,31,english,American Samoa,Left,R561552147430gxrw,1.0,,,,,,,
10,,instruction,image-button-response,806806,male,31,english,American Samoa,Left,R561552147430gxrw,,,,,,,,
10,,instruction,survey-multi-choice,832426,male,31,english,American Samoa,Left,R561552147430gxrw,,"{""Q0"":"" To decide what caused the activation of the GCM"",""Q1"":"" A GCM is a square marked with a star"",""Q2"":"" A GCM becomes active if all of its inputs are active"",""Q3"":"" You should click on just one detector in each network""}",,,,,,
10,,instruction,image-button-response,845725,male,31,english,American Samoa,Left,R561552147430gxrw,,,,,,,,
10,45860.60999997426,branch_LBSE2,causal-graph1,905819,male,31,english,American Samoa,Left,R561552147430gxrw,1.0,,AND_Gate,Short,Event,Bottom,Medium,node7
10,29238.614999921992,branch_LTMS,causal-graph1,943864,male,31,english,American Samoa,Left,R561552147430gxrw,1.0,,AND_Gate,Medium,State,Top,,node11
10,22099.57000007853,chain_LM,causal-graph1,970957,male,31,english,American Samoa,Left,R561552147430gxrw,1.0,,Chain,Medium,,,,node5
10,25484.799999976534,branch_LTLE3,causal-graph1,999970,male,31,english,American Samoa,Left,R561552147430gxrw,1.0,,AND_Gate,Long,Event,Top,Long,node3
10,18775.30000009574,branch_LTSS,causal-graph1,1026717,male,31,english,American Samoa,Left,R561552147430gxrw,1.0,,AND_Gate,Short,State,Top,,node15
10,15787.424999987708,chain_LS,causal-graph1,1046086,male,31,english,American Samoa,Left,R561552147430gxrw,1.0,,Chain,Short,,,,node8
10,15331.355000031182,branch_LTLE1,causal-graph1,1064933,male,31,english,American Samoa,Left,R561552147430gxrw,1.0,,AND_Gate,Long,Event,Top,Short,node15
10,16274.259999976492,branch_LTME2,causal-graph1,1086702,male,31,english,American Samoa,Left,R561552147430gxrw,1.0,,AND_Gate,Medium,Event,Top,Medium,node15
10,46689.70500002615,branch_LTME1,causal-graph1,1137844,male,31,english,American Samoa,Left,R561552147430gxrw,1.0,,AND_Gate,Medium,Event,Top,Short,node15
10,17065.094999969006,chain_LL,causal-graph1,1159442,male,31,english,American Samoa,Left,R561552147430gxrw,1.0,,Chain,Long,,,,node8
10,17271.840000059456,branch_LBME3,causal-graph1,1180276,male,31,english,American Samoa,Left,R561552147430gxrw,1.0,,AND_Gate,Medium,Event,Bottom,Long,node15
10,10692.504999926314,branch_LBSE1,causal-graph1,1193985,male,31,english,American Samoa,Left,R561552147430gxrw,1.0,,AND_Gate,Short,Event,Bottom,Short,node15
10,15507.589999935592,branch_LTSE3,causal-graph1,1220268,male,31,english,American Samoa,Left,R561552147430gxrw,1.0,,AND_Gate,Short,Event,Top,Long,node15
10,15075.50000003539,branch_LTLE2,causal-graph1,1238706,male,31,english,American Samoa,Left,R561552147430gxrw,1.0,,AND_Gate,Long,Event,Top,Medium,node15
10,13086.145000066608,branch_LBLS,causal-graph1,1259549,male,31,english,American Samoa,Left,R561552147430gxrw,1.0,,AND_Gate,Long,State,Bottom,,node15
10,,instruction,image-button-response,1265224,male,31,english,American Samoa,Left,R561552147430gxrw,,,,,,,,
10,103992.65999998896,comment,survey-text,1369232,male,31,english,American Samoa,Left,R561552147430gxrw,,"{""Q0"":""good""}",,,,,,
11,,instruction,image-button-response,4184,male,57,ENGLISH,United States of America,Left,R568544927460gxrw,,,,,,,,
11,,instruction,causal-graph1,17451,male,57,ENGLISH,United States of America,Left,R568544927460gxrw,,,,,,,,
11,,instruction,causal-graph1,49633,male,57,ENGLISH,United States of America,Left,R568544927460gxrw,1.0,,,,,,,
11,,instruction,causal-graph1,53092,male,57,ENGLISH,United States of America,Left,R568544927460gxrw,,,,,,,,
11,,instruction,causal-graph1,82282,male,57,ENGLISH,United States of America,Left,R568544927460gxrw,1.0,,,,,,,
11,,instruction,image-button-response,93372,male,57,ENGLISH,United States of America,Left,R568544927460gxrw,,,,,,,,
11,,instruction,survey-multi-choice,979619,male,57,ENGLISH,United States of America,Left,R568544927460gxrw,,"{""Q0"":"" To decide what caused the activation of the GCM"",""Q1"":"" A GCM is a square marked with a star"",""Q2"":"" A GCM becomes active if all of its inputs are active"",""Q3"":"" You should click on just one detector in each network""}",,,,,,
11,,instruction,image-button-response,983448,male,57,ENGLISH,United States of America,Left,R568544927460gxrw,,,,,,,,
11,79525.93000000343,branch_LTLS,causal-graph1,1066188,male,57,ENGLISH,United States of America,Left,R568544927460gxrw,1.0,,AND_Gate,Long,State,Top,,node10
11,29967.63500012457,branch_LBME3,causal-graph1,1108270,male,57,ENGLISH,United States of America,Left,R568544927460gxrw,1.0,,AND_Gate,Medium,Event,Bottom,Long,node12
11,21986.945000011478,branch_LTME1,causal-graph1,1133248,male,57,ENGLISH,United States of America,Left,R568544927460gxrw,1.0,,AND_Gate,Medium,Event,Top,Short,node6
11,21802.154999924824,branch_LTME2,causal-graph1,1159820,male,57,ENGLISH,United States of America,Left,R568544927460gxrw,1.0,,AND_Gate,Medium,Event,Top,Medium,node5
11,24249.370000092313,branch_LTSE2,causal-graph1,1188128,male,57,ENGLISH,United States of America,Left,R568544927460gxrw,1.0,,AND_Gate,Short,Event,Top,Medium,node5
11,38789.61999993771,branch_LTLE3,causal-graph1,1230738,male,57,ENGLISH,United States of America,Left,R568544927460gxrw,1.0,,AND_Gate,Long,Event,Top,Long,node4
11,16425.775000127032,branch_LBLE2,causal-graph1,1251576,male,57,ENGLISH,United States of America,Left,R568544927460gxrw,1.0,,AND_Gate,Long,Event,Bottom,Medium,node3
11,12091.345000080764,branch_LTSE1,causal-graph1,1272479,male,57,ENGLISH,United States of America,Left,R568544927460gxrw,1.0,,AND_Gate,Short,Event,Top,Short,node12
11,14626.285000005735,branch_LTLE1,causal-graph1,1289839,male,57,ENGLISH,United States of America,Left,R568544927460gxrw,1.0,,AND_Gate,Long,Event,Top,Short,node11
11,25281.335000181567,branch_LTSE3,causal-graph1,1333082,male,57,ENGLISH,United States of America,Left,R568544927460gxrw,1.0,,AND_Gate,Short,Event,Top,Long,node14
11,9475.43999995105,branch_LTSS,causal-graph1,1345248,male,57,ENGLISH,United States of America,Left,R568544927460gxrw,1.0,,AND_Gate,Short,State,Top,,node14
11,10120.224999962376,branch_LBMS,causal-graph1,1359427,male,57,ENGLISH,United States of America,Left,R568544927460gxrw,1.0,,AND_Gate,Medium,State,Bottom,,node5
11,18263.125000055883,chain_LL,causal-graph1,1381929,male,57,ENGLISH,United States of America,Left,R568544927460gxrw,1.0,,Chain,Long,,,,node4
11,9247.179999947548,chain_LS,causal-graph1,1393834,male,57,ENGLISH,United States of America,Left,R568544927460gxrw,1.0,,Chain,Short,,,,node7
11,12110.28499994427,chain_LM,causal-graph1,1409879,male,57,ENGLISH,United States of America,Left,R568544927460gxrw,1.0,,Chain,Medium,,,,node5
11,,instruction,image-button-response,1413169,male,57,ENGLISH,United States of America,Left,R568544927460gxrw,,,,,,,,
11,24225.22499994375,comment,survey-text,1437418,male,57,ENGLISH,United States of America,Left,R568544927460gxrw,,"{""Q0"":""GOOD""}",,,,,,
12,,instruction,image-button-response,17770,female,32,English,United States of America,Right,R562653127930gxrw,,,,,,,,
12,,instruction,causal-graph1,27938,female,32,English,United States of America,Right,R562653127930gxrw,,,,,,,,
12,,instruction,causal-graph1,62585,female,32,English,United States of America,Right,R562653127930gxrw,1.0,,,,,,,
12,,instruction,causal-graph1,71632,female,32,English,United States of America,Right,R562653127930gxrw,,,,,,,,
12,,instruction,causal-graph1,96960,female,32,English,United States of America,Right,R562653127930gxrw,1.0,,,,,,,
12,,instruction,image-button-response,111696,female,32,English,United States of America,Right,R562653127930gxrw,,,,,,,,
12,,instruction,survey-multi-choice,172489,female,32,English,United States of America,Right,R562653127930gxrw,,"{""Q0"":"" To find out if the Gauge of Critical Moment (GCM) is activated or not"",""Q1"":""A GCM is a square without any mark"",""Q2"":"" A GCM becomes active if at least one of its inputs is active"",""Q3"":"" You should click on just one detector in each network""}",,,,,,
12,,instruction,image-button-response,177942,female,32,English,United States of America,Right,R562653127930gxrw,,,,,,,,
12,,instruction,image-button-response,183997,female,32,English,United States of America,Right,R562653127930gxrw,,,,,,,,
12,,instruction,causal-graph1,192397,female,32,English,United States of America,Right,R562653127930gxrw,,,,,,,,
12,,instruction,causal-graph1,233741,female,32,English,United States of America,Right,R562653127930gxrw,1.0,,,,,,,
12,,instruction,causal-graph1,250924,female,32,English,United States of America,Right,R562653127930gxrw,,,,,,,,
12,,instruction,causal-graph1,281507,female,32,English,United States of America,Right,R562653127930gxrw,1.0,,,,,,,
12,,instruction,image-button-response,292772,female,32,English,United States of America,Right,R562653127930gxrw,,,,,,,,
12,,instruction,survey-multi-choice,389605,female,32,English,United States of America,Right,R562653127930gxrw,,"{""Q0"":"" To find out if the Gauge of Critical Moment (GCM) is activated or not"",""Q1"":"" A GCM is a square marked with a star"",""Q2"":"" A GCM becomes active if all of its inputs are active"",""Q3"":"" You should click on just one detector in each network""}",,,,,,
12,,instruction,image-button-response,396314,female,32,English,United States of America,Right,R562653127930gxrw,,,,,,,,
12,,instruction,image-button-response,415562,female,32,English,United States of America,Right,R562653127930gxrw,,,,,,,,
12,,instruction,causal-graph1,424626,female,32,English,United States of America,Right,R562653127930gxrw,,,,,,,,
12,,instruction,causal-graph1,447233,female,32,English,United States of America,Right,R562653127930gxrw,1.0,,,,,,,
12,,instruction,causal-graph1,449401,female,32,English,United States of America,Right,R562653127930gxrw,,,,,,,,
12,,instruction,causal-graph1,467905,female,32,English,United States of America,Right,R562653127930gxrw,1.0,,,,,,,
12,,instruction,image-button-response,469928,female,32,English,United States of America,Right,R562653127930gxrw,,,,,,,,
12,,instruction,survey-multi-choice,627088,female,32,English,United States of America,Right,R562653127930gxrw,,"{""Q0"":"" To decide what causes the activation of each detector"",""Q1"":"" A GCM is a square marked with a star"",""Q2"":"" A GCM becomes active if all of its inputs are active"",""Q3"":"" You should click on just one detector in each network""}",,,,,,
12,,instruction,image-button-response,629094,female,32,English,United States of America,Right,R562653127930gxrw,,,,,,,,
12,,instruction,image-button-response,630117,female,32,English,United States of America,Right,R562653127930gxrw,,,,,,,,
12,,instruction,causal-graph1,631557,female,32,English,United States of America,Right,R562653127930gxrw,,,,,,,,
12,,instruction,causal-graph1,637205,female,32,English,United States of America,Right,R562653127930gxrw,1.0,,,,,,,
12,,instruction,causal-graph1,638221,female,32,English,United States of America,Right,R562653127930gxrw,,,,,,,,
12,,instruction,causal-graph1,650437,female,32,English,United States of America,Right,R562653127930gxrw,1.0,,,,,,,
12,,instruction,image-button-response,651485,female,32,English,United States of America,Right,R562653127930gxrw,,,,,,,,
12,,instruction,survey-multi-choice,732966,female,32,English,United States of America,Right,R562653127930gxrw,,"{""Q0"":"" To find out if the Gauge of Critical Moment (GCM) is activated or not"",""Q1"":"" A GCM is a square marked with a star"",""Q2"":"" A GCM becomes active if all of its inputs are active"",""Q3"":"" You should assign a number to every detector in every network""}",,,,,,
12,,instruction,image-button-response,734452,female,32,English,United States of America,Right,R562653127930gxrw,,,,,,,,
12,,instruction,image-button-response,735171,female,32,English,United States of America,Right,R562653127930gxrw,,,,,,,,
12,,instruction,causal-graph1,736203,female,32,English,United States of America,Right,R562653127930gxrw,,,,,,,,
12,,instruction,causal-graph1,742500,female,32,English,United States of America,Right,R562653127930gxrw,1.0,,,,,,,
12,,instruction,causal-graph1,743484,female,32,English,United States of America,Right,R562653127930gxrw,,,,,,,,
12,,instruction,causal-graph1,754324,female,32,English,United States of America,Right,R562653127930gxrw,1.0,,,,,,,
12,,instruction,image-button-response,755803,female,32,English,United States of America,Right,R562653127930gxrw,,,,,,,,
12,,instruction,survey-multi-choice,939361,female,32,English,United States of America,Right,R562653127930gxrw,,"{""Q0"":"" To decide what caused the activation of the GCM"",""Q1"":"" A GCM is a square marked with a star"",""Q2"":"" A GCM becomes active if all of its inputs are active"",""Q3"":"" You should assign a number to every detector in every network""}",,,,,,
12,,instruction,image-button-response,941495,female,32,English,United States of America,Right,R562653127930gxrw,,,,,,,,
12,,instruction,image-button-response,943032,female,32,English,United States of America,Right,R562653127930gxrw,,,,,,,,
12,,instruction,causal-graph1,948055,female,32,English,United States of America,Right,R562653127930gxrw,,,,,,,,
12,,instruction,causal-graph1,968655,female,32,English,United States of America,Right,R562653127930gxrw,1.0,,,,,,,
12,,instruction,causal-graph1,1017983,female,32,English,United States of America,Right,R562653127930gxrw,,,,,,,,
12,,instruction,causal-graph1,1029678,female,32,English,United States of America,Right,R562653127930gxrw,1.0,,,,,,,
12,,instruction,image-button-response,1031134,female,32,English,United States of America,Right,R562653127930gxrw,,,,,,,,
12,,instruction,survey-multi-choice,1107831,female,32,English,United States of America,Right,R562653127930gxrw,,"{""Q0"":"" To find out if the Gauge of Critical Moment (GCM) is activated or not"",""Q1"":"" A GCM is a square marked with a star"",""Q2"":"" A GCM becomes active if all of its inputs are active"",""Q3"":"" You should assign a number to every detector in every network""}",,,,,,
12,,instruction,image-button-response,1109476,female,32,English,United States of America,Right,R562653127930gxrw,,,,,,,,
12,,instruction,image-button-response,1110213,female,32,English,United States of America,Right,R562653127930gxrw,,,,,,,,
12,,instruction,causal-graph1,1111219,female,32,English,United States of America,Right,R562653127930gxrw,,,,,,,,
12,,instruction,causal-graph1,1117212,female,32,English,United States of America,Right,R562653127930gxrw,1.0,,,,,,,
12,,instruction,causal-graph1,1118292,female,32,English,United States of America,Right,R562653127930gxrw,,,,,,,,
12,,instruction,causal-graph1,1129276,female,32,English,United States of America,Right,R562653127930gxrw,1.0,,,,,,,
12,,instruction,image-button-response,1131500,female,32,English,United States of America,Right,R562653127930gxrw,,,,,,,,
12,,instruction,survey-multi-choice,1157308,female,32,English,United States of America,Right,R562653127930gxrw,,"{""Q0"":"" To find out if the Gauge of Critical Moment (GCM) is activated or not"",""Q1"":"" A GCM is a square marked with a star"",""Q2"":"" A GCM becomes active if all of its inputs are active"",""Q3"":"" You should click on just one detector in each network""}",,,,,,
12,,instruction,image-button-response,1158786,female,32,English,United States of America,Right,R562653127930gxrw,,,,,,,,
12,,instruction,image-button-response,1159538,female,32,English,United States of America,Right,R562653127930gxrw,,,,,,,,
12,,instruction,causal-graph1,1160483,female,32,English,United States of America,Right,R562653127930gxrw,,,,,,,,
12,,instruction,causal-graph1,1166443,female,32,English,United States of America,Right,R562653127930gxrw,1.0,,,,,,,
12,,instruction,causal-graph1,1167211,female,32,English,United States of America,Right,R562653127930gxrw,,,,,,,,
12,,instruction,causal-graph1,1181067,female,32,English,United States of America,Right,R562653127930gxrw,1.0,,,,,,,
12,,instruction,image-button-response,1182202,female,32,English,United States of America,Right,R562653127930gxrw,,,,,,,,
12,,instruction,survey-multi-choice,1191356,female,32,English,United States of America,Right,R562653127930gxrw,,"{""Q0"":"" To find out if the Gauge of Critical Moment (GCM) is activated or not"",""Q1"":"" A GCM is a square marked with a star"",""Q2"":"" A GCM becomes active if all of its inputs are active"",""Q3"":"" Some detectors are not clickable""}",,,,,,
12,,instruction,image-button-response,1192793,female,32,English,United States of America,Right,R562653127930gxrw,,,,,,,,
12,,instruction,image-button-response,1193578,female,32,English,United States of America,Right,R562653127930gxrw,,,,,,,,
12,,instruction,causal-graph1,1194362,female,32,English,United States of America,Right,R562653127930gxrw,,,,,,,,
12,,instruction,causal-graph1,1202571,female,32,English,United States of America,Right,R562653127930gxrw,1.0,,,,,,,
12,,instruction,causal-graph1,1203809,female,32,English,United States of America,Right,R562653127930gxrw,,,,,,,,
12,,instruction,causal-graph1,1214994,female,32,English,United States of America,Right,R562653127930gxrw,1.0,,,,,,,
12,,instruction,image-button-response,1216417,female,32,English,United States of America,Right,R562653127930gxrw,,,,,,,,
12,,instruction,survey-multi-choice,1231035,female,32,English,United States of America,Right,R562653127930gxrw,,"{""Q0"":"" To find out if the Gauge of Critical Moment (GCM) is activated or not"",""Q1"":"" A GCM is a square marked with a star"",""Q2"":"" A GCM becomes active if all of its inputs are active"",""Q3"":"" Some detectors are not clickable""}",,,,,,
12,,instruction,image-button-response,1232389,female,32,English,United States of America,Right,R562653127930gxrw,,,,,,,,
12,,instruction,image-button-response,1233168,female,32,English,United States of America,Right,R562653127930gxrw,,,,,,,,
12,,instruction,causal-graph1,1234137,female,32,English,United States of America,Right,R562653127930gxrw,,,,,,,,
12,,instruction,causal-graph1,1240473,female,32,English,United States of America,Right,R562653127930gxrw,1.0,,,,,,,
12,,instruction,causal-graph1,1241401,female,32,English,United States of America,Right,R562653127930gxrw,,,,,,,,
12,,instruction,causal-graph1,1251929,female,32,English,United States of America,Right,R562653127930gxrw,1.0,,,,,,,
12,,instruction,image-button-response,1253233,female,32,English,United States of America,Right,R562653127930gxrw,,,,,,,,
12,,instruction,survey-multi-choice,1273665,female,32,English,United States of America,Right,R562653127930gxrw,,"{""Q0"":"" To decide what caused the activation of the GCM"",""Q1"":"" A GCM is a square marked with a star"",""Q2"":"" A GCM becomes active if all of its inputs are active"",""Q3"":"" You should assign a number to every detector in every network""}",,,,,,
12,,instruction,image-button-response,1275033,female,32,English,United States of America,Right,R562653127930gxrw,,,,,,,,
12,,instruction,image-button-response,1275800,female,32,English,United States of America,Right,R562653127930gxrw,,,,,,,,
12,,instruction,causal-graph1,1276737,female,32,English,United States of America,Right,R562653127930gxrw,,,,,,,,
12,,instruction,causal-graph1,1282944,female,32,English,United States of America,Right,R562653127930gxrw,1.0,,,,,,,
12,,instruction,causal-graph1,1283769,female,32,English,United States of America,Right,R562653127930gxrw,,,,,,,,
12,,instruction,causal-graph1,1294644,female,32,English,United States of America,Right,R562653127930gxrw,1.0,,,,,,,
12,,instruction,image-button-response,1295688,female,32,English,United States of America,Right,R562653127930gxrw,,,,,,,,
12,,instruction,survey-multi-choice,1311193,female,32,English,United States of America,Right,R562653127930gxrw,,"{""Q0"":"" To decide what caused the activation of the GCM"",""Q1"":"" A GCM is a square marked with a star"",""Q2"":"" A GCM becomes active if all of its inputs are active"",""Q3"":"" You should click on just one detector in each network""}",,,,,,
12,,instruction,image-button-response,1317920,female,32,English,United States of America,Right,R562653127930gxrw,,,,,,,,
12,26162.099999957718,chain_RM,causal-graph1,1348783,female,32,English,United States of America,Right,R562653127930gxrw,1.0,,Chain,Medium,,,,node4
12,17549.514999962412,branch_RBMS,causal-graph1,1368495,female,32,English,United States of America,Right,R562653127930gxrw,1.0,,AND_Gate,Medium,State,Bottom,,node5
12,9551.89000000246,chain_RS,causal-graph1,1380975,female,32,English,United States of America,Right,R562653127930gxrw,1.0,,Chain,Short,,,,node7
12,15517.594999982975,chain_RL,causal-graph1,1399086,female,32,English,United States of America,Right,R562653127930gxrw,1.0,,Chain,Long,,,,node3
12,11927.284999983383,branch_RBSS,causal-graph1,1412838,female,32,English,United States of America,Right,R562653127930gxrw,1.0,,AND_Gate,Short,State,Bottom,,node7
12,10453.905000002123,branch_RTLS,causal-graph1,1425758,female,32,English,United States of America,Right,R562653127930gxrw,1.0,,AND_Gate,Long,State,Top,,node10
12,17782.415000023317,branch_RBLE3,causal-graph1,1445197,female,32,English,United States of America,Right,R562653127930gxrw,1.0,,AND_Gate,Long,Event,Bottom,Long,node10
12,21590.45000001788,branch_RBME3,causal-graph1,1469029,female,32,English,United States of America,Right,R562653127930gxrw,1.0,,AND_Gate,Medium,Event,Bottom,Long,node12
12,13654.764999984764,branch_RBLE1,causal-graph1,1485309,female,32,English,United States of America,Right,R562653127930gxrw,1.0,,AND_Gate,Long,Event,Bottom,Short,node10
12,16638.660000055093,branch_RTLE2,causal-graph1,1504036,female,32,English,United States of America,Right,R562653127930gxrw,1.0,,AND_Gate,Long,Event,Top,Medium,node10
12,14020.829999935813,branch_RBSE3,causal-graph1,1519988,female,32,English,United States of America,Right,R562653127930gxrw,1.0,,AND_Gate,Short,Event,Bottom,Long,node14
12,14467.665000003764,branch_RTME1,causal-graph1,1537819,female,32,English,United States of America,Right,R562653127930gxrw,1.0,,AND_Gate,Medium,Event,Top,Short,node12
12,10791.190000018105,branch_RBSE2,causal-graph1,1551317,female,32,English,United States of America,Right,R562653127930gxrw,1.0,,AND_Gate,Short,Event,Bottom,Medium,node7
12,9319.270000094548,branch_RBSE1,causal-graph1,1563091,female,32,English,United States of America,Right,R562653127930gxrw,1.0,,AND_Gate,Short,Event,Bottom,Short,node7
12,13829.56999994349,branch_RBME2,causal-graph1,1578243,female,32,English,United States of America,Right,R562653127930gxrw,1.0,,AND_Gate,Medium,Event,Bottom,Medium,node5
12,,instruction,image-button-response,1583181,female,32,English,United States of America,Right,R562653127930gxrw,,,,,,,,
12,16031.964999972844,comment,survey-text,1599228,female,32,English,United States of America,Right,R562653127930gxrw,,"{""Q0"":""""}",,,,,,
13,,instruction,image-button-response,48048,male,32,english,United States of America,Right,R566190997320gxrw,,,,,,,,
13,,instruction,causal-graph1,90788,male,32,english,United States of America,Right,R566190997320gxrw,,,,,,,,
13,,instruction,causal-graph1,194161,male,32,english,United States of America,Right,R566190997320gxrw,1.0,,,,,,,
13,,instruction,causal-graph1,207335,male,32,english,United States of America,Right,R566190997320gxrw,,,,,,,,
13,,instruction,causal-graph1,232647,male,32,english,United States of America,Right,R566190997320gxrw,1.0,,,,,,,
13,,instruction,image-button-response,522268,male,32,english,United States of America,Right,R566190997320gxrw,,,,,,,,
13,,instruction,survey-multi-choice,828728,male,32,english,United States of America,Right,R566190997320gxrw,,"{""Q0"":"" To decide what causes the activation of each detector"",""Q1"":"" A GCM is a square marked with a star"",""Q2"":"" A GCM becomes active if all of its inputs are active"",""Q3"":"" You should click on just one detector in each network""}",,,,,,
13,,instruction,image-button-response,850144,male,32,english,United States of America,Right,R566190997320gxrw,,,,,,,,
13,,instruction,image-button-response,853858,male,32,english,United States of America,Right,R566190997320gxrw,,,,,,,,
13,,instruction,causal-graph1,866608,male,32,english,United States of America,Right,R566190997320gxrw,,,,,,,,
13,,instruction,causal-graph1,889066,male,32,english,United States of America,Right,R566190997320gxrw,2.0,,,,,,,
13,,instruction,causal-graph1,904825,male,32,english,United States of America,Right,R566190997320gxrw,,,,,,,,
13,,instruction,causal-graph1,1029617,male,32,english,United States of America,Right,R566190997320gxrw,1.0,,,,,,,
13,,instruction,image-button-response,1065080,male,32,english,United States of America,Right,R566190997320gxrw,,,,,,,,
13,,instruction,survey-multi-choice,1348300,male,32,english,United States of America,Right,R566190997320gxrw,,"{""Q0"":"" To decide what caused the activation of the GCM"",""Q1"":"" A GCM is a square marked with a star"",""Q2"":"" A GCM becomes active if all of its inputs are active"",""Q3"":"" You should click on just one detector in each network""}",,,,,,
13,,instruction,image-button-response,1358849,male,32,english,United States of America,Right,R566190997320gxrw,,,,,,,,
13,25317.8899999985,branch_RBLE1,causal-graph1,1446866,male,32,english,United States of America,Right,R566190997320gxrw,2.0,,AND_Gate,Long,Event,Bottom,Short,node13
13,19246.930000001103,branch_RBME2,causal-graph1,1471549,male,32,english,United States of America,Right,R566190997320gxrw,1.0,,AND_Gate,Medium,Event,Bottom,Medium,node15
13,50267.39500000258,branch_RBLS,causal-graph1,1527495,male,32,english,United States of America,Right,R566190997320gxrw,1.0,,AND_Gate,Long,State,Bottom,,node3
13,11533.709999996003,chain_RL,causal-graph1,1551268,male,32,english,United States of America,Right,R566190997320gxrw,1.0,,Chain,Long,,,,node7
13,26459.26500000502,branch_RBME1,causal-graph1,1614107,male,32,english,United States of America,Right,R566190997320gxrw,1.0,,AND_Gate,Medium,Event,Bottom,Short,node15
13,20937.21500000544,branch_RTMS,causal-graph1,1641012,male,32,english,United States of America,Right,R566190997320gxrw,1.0,,AND_Gate,Medium,State,Top,,node6
13,9426.615000003947,chain_RM,causal-graph1,1653669,male,32,english,United States of America,Right,R566190997320gxrw,1.0,,Chain,Medium,,,,node5
13,14632.769999996526,chain_RS,causal-graph1,1682152,male,32,english,United States of America,Right,R566190997320gxrw,1.0,,Chain,Short,,,,node7
13,25265.740000002555,branch_RTLE2,causal-graph1,1711679,male,32,english,United States of America,Right,R566190997320gxrw,1.0,,AND_Gate,Long,Event,Top,Medium,node14
13,18390.400000003865,branch_RTME3,causal-graph1,1735827,male,32,english,United States of America,Right,R566190997320gxrw,1.0,,AND_Gate,Medium,Event,Top,Long,node12
13,17918.349999999857,branch_RTSE3,causal-graph1,1756116,male,32,english,United States of America,Right,R566190997320gxrw,1.0,,AND_Gate,Short,Event,Top,Long,node7
13,13718.159999996655,branch_RBSE2,causal-graph1,1771849,male,32,english,United States of America,Right,R566190997320gxrw,1.0,,AND_Gate,Short,Event,Bottom,Medium,node15
13,17202.96000000229,branch_RTLE3,causal-graph1,1843959,male,32,english,United States of America,Right,R566190997320gxrw,1.0,,AND_Gate,Long,Event,Top,Long,node15
13,11460.650000001071,branch_RTSS,causal-graph1,1941058,male,32,english,United States of America,Right,R566190997320gxrw,1.0,,AND_Gate,Short,State,Top,,node14
13,24851.819999996107,branch_RBSE1,causal-graph1,1984530,male,32,english,United States of America,Right,R566190997320gxrw,1.0,,AND_Gate,Short,Event,Bottom,Short,node15
13,,instruction,image-button-response,2018628,male,32,english,United States of America,Right,R566190997320gxrw,,,,,,,,
13,56283.07000000496,comment,survey-text,2074924,male,32,english,United States of America,Right,R566190997320gxrw,,"{""Q0"":""thank you""}",,,,,,
14,,instruction,image-button-response,34171,female,40,english,United States of America,Right,R565694367980gxrw,,,,,,,,
14,,instruction,causal-graph1,43619,female,40,english,United States of America,Right,R565694367980gxrw,,,,,,,,
14,,instruction,causal-graph1,73379,female,40,english,United States of America,Right,R565694367980gxrw,1.0,,,,,,,
14,,instruction,causal-graph1,98801,female,40,english,United States of America,Right,R565694367980gxrw,,,,,,,,
14,,instruction,causal-graph1,127790,female,40,english,United States of America,Right,R565694367980gxrw,1.0,,,,,,,
14,,instruction,image-button-response,140215,female,40,english,United States of America,Right,R565694367980gxrw,,,,,,,,
14,,instruction,survey-multi-choice,201567,female,40,english,United States of America,Right,R565694367980gxrw,,"{""Q0"":"" To find out if the Gauge of Critical Moment (GCM) is activated or not"",""Q1"":"" A GCM is a square marked with a star"",""Q2"":"" A GCM becomes active if all of its inputs are active"",""Q3"":"" Some detectors are not clickable""}",,,,,,
14,,instruction,image-button-response,207900,female,40,english,United States of America,Right,R565694367980gxrw,,,,,,,,
14,,instruction,image-button-response,211733,female,40,english,United States of America,Right,R565694367980gxrw,,,,,,,,
14,,instruction,causal-graph1,218519,female,40,english,United States of America,Right,R565694367980gxrw,,,,,,,,
14,,instruction,causal-graph1,240636,female,40,english,United States of America,Right,R565694367980gxrw,1.0,,,,,,,
14,,instruction,causal-graph1,260824,female,40,english,United States of America,Right,R565694367980gxrw,,,,,,,,
14,,instruction,causal-graph1,279491,female,40,english,United States of America,Right,R565694367980gxrw,1.0,,,,,,,
14,,instruction,image-button-response,290471,female,40,english,United States of America,Right,R565694367980gxrw,,,,,,,,
14,,instruction,survey-multi-choice,316762,female,40,english,United States of America,Right,R565694367980gxrw,,"{""Q0"":"" To decide what caused the activation of the GCM"",""Q1"":"" A GCM is a square marked with a star"",""Q2"":"" A GCM becomes active if all of its inputs are active"",""Q3"":"" Some detectors are not clickable""}",,,,,,
14,,instruction,image-button-response,320314,female,40,english,United States of America,Right,R565694367980gxrw,,,,,,,,
14,,instruction,image-button-response,322210,female,40,english,United States of America,Right,R565694367980gxrw,,,,,,,,
14,,instruction,causal-graph1,324071,female,40,english,United States of America,Right,R565694367980gxrw,,,,,,,,
14,,instruction,causal-graph1,334161,female,40,english,United States of America,Right,R565694367980gxrw,1.0,,,,,,,
14,,instruction,causal-graph1,335665,female,40,english,United States of America,Right,R565694367980gxrw,,,,,,,,
14,,instruction,causal-graph1,348415,female,40,english,United States of America,Right,R565694367980gxrw,1.0,,,,,,,
14,,instruction,image-button-response,349947,female,40,english,United States of America,Right,R565694367980gxrw,,,,,,,,
14,,instruction,survey-multi-choice,378342,female,40,english,United States of America,Right,R565694367980gxrw,,"{""Q0"":"" To decide what caused the activation of the GCM"",""Q1"":"" A GCM is a square marked with a star"",""Q2"":"" A GCM becomes active if all of its inputs are active"",""Q3"":"" You should click on just one detector in each network""}",,,,,,
14,,instruction,image-button-response,384215,female,40,english,United States of America,Right,R565694367980gxrw,,,,,,,,
14,44352.96499999822,chain_RL,causal-graph1,443091,female,40,english,United States of America,Right,R565694367980gxrw,1.0,,Chain,Long,,,,node3
14,19223.870000016177,branch_RBLS,causal-graph1,467444,female,40,english,United States of America,Right,R565694367980gxrw,1.0,,AND_Gate,Long,State,Bottom,,node3
14,18448.830000008456,branch_RBME2,causal-graph1,492532,female,40,english,United States of America,Right,R565694367980gxrw,1.0,,AND_Gate,Medium,Event,Bottom,Medium,node12
14,10316.275000019232,branch_RBSE1,causal-graph1,507650,female,40,english,United States of America,Right,R565694367980gxrw,1.0,,AND_Gate,Short,Event,Bottom,Short,node14
14,12100.544999993872,branch_RTSE2,causal-graph1,524025,female,40,english,United States of America,Right,R565694367980gxrw,1.0,,AND_Gate,Short,Event,Top,Medium,node7
14,9460.814999998549,branch_RBSS,causal-graph1,542317,female,40,english,United States of America,Right,R565694367980gxrw,1.0,,AND_Gate,Short,State,Bottom,,node7
14,12105.139999999663,branch_RTME1,causal-graph1,557501,female,40,english,United States of America,Right,R565694367980gxrw,1.0,,AND_Gate,Medium,Event,Top,Short,node5
14,9696.134999976492,branch_RBMS,causal-graph1,574413,female,40,english,United States of America,Right,R565694367980gxrw,1.0,,AND_Gate,Medium,State,Bottom,,node5
14,15048.97499998333,branch_RTLE2,causal-graph1,593995,female,40,english,United States of America,Right,R565694367980gxrw,1.0,,AND_Gate,Long,Event,Top,Medium,node3
14,13536.275000020396,branch_RTLE1,causal-graph1,612320,female,40,english,United States of America,Right,R565694367980gxrw,1.0,,AND_Gate,Long,Event,Top,Short,node3
14,15084.584999975048,branch_RBME3,causal-graph1,632204,female,40,english,United States of America,Right,R565694367980gxrw,1.0,,AND_Gate,Medium,Event,Bottom,Long,node12
14,8270.430000004126,chain_RS,causal-graph1,647300,female,40,english,United States of America,Right,R565694367980gxrw,1.0,,Chain,Short,,,,node7
14,13783.749999973224,branch_RTSE3,causal-graph1,664512,female,40,english,United States of America,Right,R565694367980gxrw,1.0,,AND_Gate,Short,Event,Top,Long,node7
14,12949.865000002319,chain_RM,causal-graph1,681091,female,40,english,United States of America,Right,R565694367980gxrw,1.0,,Chain,Medium,,,,node5
14,18829.36500001233,branch_RBLE3,causal-graph1,704278,female,40,english,United States of America,Right,R565694367980gxrw,1.0,,AND_Gate,Long,Event,Bottom,Long,node10
14,,instruction,image-button-response,709165,female,40,english,United States of America,Right,R565694367980gxrw,,,,,,,,
14,36515.19999999437,comment,survey-text,745698,female,40,english,United States of America,Right,R565694367980gxrw,,"{""Q0"":""in did n't face any difficulty during the survey""}",,,,,,
15,,instruction,image-button-response,4568,male,34,ENGLISH,United States of America,Right,R563546347110gxrw,,,,,,,,
15,,instruction,causal-graph1,6740,male,34,ENGLISH,United States of America,Right,R563546347110gxrw,,,,,,,,
15,,instruction,causal-graph1,14420,male,34,ENGLISH,United States of America,Right,R563546347110gxrw,1.0,,,,,,,
15,,instruction,causal-graph1,17789,male,34,ENGLISH,United States of America,Right,R563546347110gxrw,,,,,,,,
15,,instruction,causal-graph1,29441,male,34,ENGLISH,United States of America,Right,R563546347110gxrw,1.0,,,,,,,
15,,instruction,image-button-response,30812,male,34,ENGLISH,United States of America,Right,R563546347110gxrw,,,,,,,,
15,,instruction,survey-multi-choice,40783,male,34,ENGLISH,United States of America,Right,R563546347110gxrw,,"{""Q0"":"" To decide what caused the activation of the GCM"",""Q1"":"" A GCM is a square marked with a star"",""Q2"":"" A GCM becomes active if all of its inputs are active"",""Q3"":"" You should click on just one detector in each network""}",,,,,,
15,,instruction,image-button-response,42609,male,34,ENGLISH,United States of America,Right,R563546347110gxrw,,,,,,,,
15,17385.999999998603,chain_RM,causal-graph1,63469,male,34,ENGLISH,United States of America,Right,R563546347110gxrw,1.0,,Chain,Medium,,,,node6
15,13762.999999977184,branch_RBSE2,causal-graph1,80103,male,34,ENGLISH,United States of America,Right,R563546347110gxrw,1.0,,AND_Gate,Short,Event,Bottom,Medium,node14
15,14176.000000035858,branch_RTLE2,causal-graph1,96949,male,34,ENGLISH,United States of America,Right,R563546347110gxrw,1.0,,AND_Gate,Long,Event,Top,Medium,node7
15,10831.999999994878,branch_RTSE1,causal-graph1,110349,male,34,ENGLISH,United States of America,Right,R563546347110gxrw,1.0,,AND_Gate,Short,Event,Top,Short,node7
15,13485.99999997532,branch_RTME2,causal-graph1,126299,male,34,ENGLISH,United States of America,Right,R563546347110gxrw,1.0,,AND_Gate,Medium,Event,Top,Medium,node14
15,10411.999999952968,branch_RBME1,causal-graph1,147203,male,34,ENGLISH,United States of America,Right,R563546347110gxrw,1.0,,AND_Gate,Medium,Event,Bottom,Short,node14
15,17191.999999980908,branch_RBLE3,causal-graph1,166727,male,34,ENGLISH,United States of America,Right,R563546347110gxrw,1.0,,AND_Gate,Long,Event,Bottom,Long,node15
15,44962.99999998882,branch_RTME3,causal-graph1,215609,male,34,ENGLISH,United States of America,Right,R563546347110gxrw,1.0,,AND_Gate,Medium,Event,Top,Long,node15
15,14373.000000021419,branch_RTSE3,causal-graph1,232302,male,34,ENGLISH,United States of America,Right,R563546347110gxrw,1.0,,AND_Gate,Short,Event,Top,Long,node15
15,9640.00000001397,branch_RTMS,causal-graph1,244358,male,34,ENGLISH,United States of America,Right,R563546347110gxrw,1.0,,AND_Gate,Medium,State,Top,,node15
15,7844.999999972059,branch_RTSS,causal-graph1,254589,male,34,ENGLISH,United States of America,Right,R563546347110gxrw,1.0,,AND_Gate,Short,State,Top,,node15
15,10827.999999979509,chain_RL,causal-graph1,267749,male,34,ENGLISH,United States of America,Right,R563546347110gxrw,1.0,,Chain,Long,,,,node8
15,10271.000000007916,chain_RS,causal-graph1,281885,male,34,ENGLISH,United States of America,Right,R563546347110gxrw,1.0,,Chain,Short,,,,node8
15,12074.999999953436,branch_RBLE1,causal-graph1,301181,male,34,ENGLISH,United States of America,Right,R563546347110gxrw,1.0,,AND_Gate,Long,Event,Bottom,Short,node15
15,10462.999999988824,branch_RTLS,causal-graph1,313920,male,34,ENGLISH,United States of America,Right,R563546347110gxrw,1.0,,AND_Gate,Long,State,Top,,node15
15,,instruction,image-button-response,315325,male,34,ENGLISH,United States of America,Right,R563546347110gxrw,,,,,,,,
15,10367.999999958556,comment,survey-text,325722,male,34,ENGLISH,United States of America,Right,R563546347110gxrw,,"{""Q0"":""very nice experiment""}",,,,,,
16,,instruction,image-button-response,12988,male,53,English,United States of America,Left,R569124397980gxrw,,,,,,,,
16,,instruction,causal-graph1,17087,male,53,English,United States of America,Left,R569124397980gxrw,,,,,,,,
16,,instruction,causal-graph1,39058,male,53,English,United States of America,Left,R569124397980gxrw,1.0,,,,,,,
16,,instruction,causal-graph1,41877,male,53,English,United States of America,Left,R569124397980gxrw,,,,,,,,
16,,instruction,causal-graph1,54977,male,53,English,United States of America,Left,R569124397980gxrw,1.0,,,,,,,
16,,instruction,image-button-response,57377,male,53,English,United States of America,Left,R569124397980gxrw,,,,,,,,
16,,instruction,survey-multi-choice,89257,male,53,English,United States of America,Left,R569124397980gxrw,,"{""Q0"":"" To decide what causes the activation of each detector"",""Q1"":"" A GCM is a square marked with a star"",""Q2"":"" A GCM becomes active if at least one of its inputs is active"",""Q3"":"" You should assign a number to every detector in every network""}",,,,,,
16,,instruction,image-button-response,96167,male,53,English,United States of America,Left,R569124397980gxrw,,,,,,,,
16,,instruction,image-button-response,99028,male,53,English,United States of America,Left,R569124397980gxrw,,,,,,,,
16,,instruction,causal-graph1,108456,male,53,English,United States of America,Left,R569124397980gxrw,,,,,,,,
16,,instruction,causal-graph1,155317,male,53,English,United States of America,Left,R569124397980gxrw,1.0,,,,,,,
16,,instruction,causal-graph1,157657,male,53,English,United States of America,Left,R569124397980gxrw,,,,,,,,
16,,instruction,causal-graph1,170097,male,53,English,United States of America,Left,R569124397980gxrw,1.0,,,,,,,
16,,instruction,image-button-response,171937,male,53,English,United States of America,Left,R569124397980gxrw,,,,,,,,
16,,instruction,survey-multi-choice,210449,male,53,English,United States of America,Left,R569124397980gxrw,,"{""Q0"":"" To find out if the Gauge of Critical Moment (GCM) is activated or not"",""Q1"":""A GCM is a square without any mark"",""Q2"":"" A GCM becomes active if all of its inputs are active"",""Q3"":"" You should click on just one detector in each network""}",,,,,,
16,,instruction,image-button-response,216768,male,53,English,United States of America,Left,R569124397980gxrw,,,,,,,,
16,,instruction,image-button-response,221956,male,53,English,United States of America,Left,R569124397980gxrw,,,,,,,,
16,,instruction,causal-graph1,224647,male,53,English,United States of America,Left,R569124397980gxrw,,,,,,,,
16,,instruction,causal-graph1,251658,male,53,English,United States of America,Left,R569124397980gxrw,2.0,,,,,,,
16,,instruction,causal-graph1,258466,male,53,English,United States of America,Left,R569124397980gxrw,,,,,,,,
16,,instruction,causal-graph1,274307,male,53,English,United States of America,Left,R569124397980gxrw,1.0,,,,,,,
16,,instruction,image-button-response,280556,male,53,English,United States of America,Left,R569124397980gxrw,,,,,,,,
16,,instruction,survey-multi-choice,414537,male,53,English,United States of America,Left,R569124397980gxrw,,"{""Q0"":"" To decide what caused the activation of the GCM"",""Q1"":""A GCM is a square without any mark"",""Q2"":"" A GCM becomes active if all of its inputs are active"",""Q3"":"" You should assign a number to every detector in every network""}",,,,,,
16,,instruction,image-button-response,420577,male,53,English,United States of America,Left,R569124397980gxrw,,,,,,,,
16,,instruction,image-button-response,427546,male,53,English,United States of America,Left,R569124397980gxrw,,,,,,,,
16,,instruction,causal-graph1,430276,male,53,English,United States of America,Left,R569124397980gxrw,,,,,,,,
16,,instruction,causal-graph1,441096,male,53,English,United States of America,Left,R569124397980gxrw,1.0,,,,,,,
16,,instruction,causal-graph1,443694,male,53,English,United States of America,Left,R569124397980gxrw,,,,,,,,
16,,instruction,causal-graph1,459626,male,53,English,United States of America,Left,R569124397980gxrw,1.0,,,,,,,
16,,instruction,image-button-response,461537,male,53,English,United States of America,Left,R569124397980gxrw,,,,,,,,
16,,instruction,survey-multi-choice,564837,male,53,English,United States of America,Left,R569124397980gxrw,,"{""Q0"":"" To decide what caused the activation of the GCM"",""Q1"":"" A GCM is a square marked with a star"",""Q2"":"" A GCM becomes active if all of its inputs are active"",""Q3"":"" You should assign a number to every detector in every network""}",,,,,,
16,,instruction,image-button-response,567047,male,53,English,United States of America,Left,R569124397980gxrw,,,,,,,,
16,,instruction,image-button-response,573467,male,53,English,United States of America,Left,R569124397980gxrw,,,,,,,,
16,,instruction,causal-graph1,575668,male,53,English,United States of America,Left,R569124397980gxrw,,,,,,,,
16,,instruction,causal-graph1,589257,male,53,English,United States of America,Left,R569124397980gxrw,1.0,,,,,,,
16,,instruction,causal-graph1,592656,male,53,English,United States of America,Left,R569124397980gxrw,,,,,,,,
16,,instruction,causal-graph1,609276,male,53,English,United States of America,Left,R569124397980gxrw,1.0,,,,,,,
16,,instruction,image-button-response,611847,male,53,English,United States of America,Left,R569124397980gxrw,,,,,,,,
16,,instruction,survey-multi-choice,1308187,male,53,English,United States of America,Left,R569124397980gxrw,,"{""Q0"":"" To find out if the Gauge of Critical Moment (GCM) is activated or not"",""Q1"":""A GCM is a square without any mark"",""Q2"":"" A GCM becomes active if all of its inputs are active"",""Q3"":"" You should click on just one detector in each network""}",,,,,,
16,,instruction,image-button-response,1346946,male,53,English,United States of America,Left,R569124397980gxrw,,,,,,,,
16,,instruction,image-button-response,1348426,male,53,English,United States of America,Left,R569124397980gxrw,,,,,,,,
16,,instruction,causal-graph1,1350246,male,53,English,United States of America,Left,R569124397980gxrw,,,,,,,,
16,,instruction,causal-graph1,1357886,male,53,English,United States of America,Left,R569124397980gxrw,1.0,,,,,,,
16,,instruction,causal-graph1,1359352,male,53,English,United States of America,Left,R569124397980gxrw,,,,,,,,
16,,instruction,causal-graph1,1390606,male,53,English,United States of America,Left,R569124397980gxrw,1.0,,,,,,,
16,,instruction,image-button-response,1392846,male,53,English,United States of America,Left,R569124397980gxrw,,,,,,,,
16,,instruction,survey-multi-choice,1429826,male,53,English,United States of America,Left,R569124397980gxrw,,"{""Q0"":"" To find out if the Gauge of Critical Moment (GCM) is activated or not"",""Q1"":""A GCM is a square without any mark"",""Q2"":"" A GCM becomes active if all of its inputs are active"",""Q3"":"" You should assign a number to every detector in every network""}",,,,,,
16,,instruction,image-button-response,1432037,male,53,English,United States of America,Left,R569124397980gxrw,,,,,,,,
16,,instruction,image-button-response,1433396,male,53,English,United States of America,Left,R569124397980gxrw,,,,,,,,
16,,instruction,causal-graph1,1436796,male,53,English,United States of America,Left,R569124397980gxrw,,,,,,,,
16,,instruction,causal-graph1,1444276,male,53,English,United States of America,Left,R569124397980gxrw,1.0,,,,,,,
16,,instruction,causal-graph1,1445896,male,53,English,United States of America,Left,R569124397980gxrw,,,,,,,,
16,,instruction,causal-graph1,1458087,male,53,English,United States of America,Left,R569124397980gxrw,1.0,,,,,,,
16,,instruction,image-button-response,1459138,male,53,English,United States of America,Left,R569124397980gxrw,,,,,,,,
16,,instruction,survey-multi-choice,1697105,male,53,English,United States of America,Left,R569124397980gxrw,,"{""Q0"":"" To decide what caused the activation of the GCM"",""Q1"":"" A GCM is a square marked with a star"",""Q2"":"" A GCM becomes active if all of its inputs are active"",""Q3"":"" You should click on just one detector in each network""}",,,,,,
16,,instruction,image-button-response,1738055,male,53,English,United States of America,Left,R569124397980gxrw,,,,,,,,
16,37901.63999982178,branch_LBME1,causal-graph1,1831294,male,53,English,United States of America,Left,R569124397980gxrw,2.0,,AND_Gate,Medium,Event,Bottom,Short,node3
16,25168.774999910966,branch_LTLE1,causal-graph1,1864775,male,53,English,United States of America,Left,R569124397980gxrw,1.0,,AND_Gate,Long,Event,Top,Short,node1
16,52219.11000018008,branch_LTSE2,causal-graph1,1920804,male,53,English,United States of America,Left,R569124397980gxrw,1.0,,AND_Gate,Short,Event,Top,Medium,node4
16,13909.10999989137,branch_LTME2,causal-graph1,1937433,male,53,English,United States of America,Left,R569124397980gxrw,1.0,,AND_Gate,Medium,Event,Top,Medium,node10
16,14364.369999850169,chain_LS,causal-graph1,1954726,male,53,English,United States of America,Left,R569124397980gxrw,1.0,,Chain,Short,,,,node4
16,14280.21500003524,branch_LBSE3,causal-graph1,1971585,male,53,English,United States of America,Left,R569124397980gxrw,1.0,,AND_Gate,Short,Event,Bottom,Long,node10
16,9712.07999996841,branch_LTMS,causal-graph1,1984464,male,53,English,United States of America,Left,R569124397980gxrw,1.0,,AND_Gate,Medium,State,Top,,node10
16,23700.674999970943,branch_LBLE2,causal-graph1,2010805,male,53,English,United States of America,Left,R569124397980gxrw,1.0,,AND_Gate,Long,Event,Bottom,Medium,node8
16,55149.61500000209,chain_LM,causal-graph1,2086444,male,53,English,United States of America,Left,R569124397980gxrw,1.0,,Chain,Medium,,,,node3
16,17597.065000096336,branch_LBME3,causal-graph1,2107203,male,53,English,United States of America,Left,R569124397980gxrw,1.0,,AND_Gate,Medium,Event,Bottom,Long,node3
16,17487.594999838617,branch_LBLE3,causal-graph1,2127902,male,53,English,United States of America,Left,R569124397980gxrw,1.0,,AND_Gate,Long,Event,Bottom,Long,node9
16,15849.76499993354,branch_LTSE1,causal-graph1,2149738,male,53,English,United States of America,Left,R569124397980gxrw,1.0,,AND_Gate,Short,Event,Top,Short,node11
16,10110.415000002831,branch_LBSS,causal-graph1,2178322,male,53,English,United States of America,Left,R569124397980gxrw,1.0,,AND_Gate,Short,State,Bottom,,node4
16,9571.290000109002,chain_LL,causal-graph1,2190843,male,53,English,United States of America,Left,R569124397980gxrw,1.0,,Chain,Long,,,,node1
16,21142.904999898747,branch_LBLS,causal-graph1,2235243,male,53,English,United States of America,Left,R569124397980gxrw,1.0,,AND_Gate,Long,State,Bottom,,node9
16,,instruction,image-button-response,2245783,male,53,English,United States of America,Left,R569124397980gxrw,,,,,,,,
16,31770.715000107884,comment,survey-text,2277562,male,53,English,United States of America,Left,R569124397980gxrw,,"{""Q0"":""good but very thinking survey""}",,,,,,
17,,instruction,image-button-response,14803,male,34,English,United States of America,Right,R562382867540gxrw,,,,,,,,
17,,instruction,causal-graph1,22292,male,34,English,United States of America,Right,R562382867540gxrw,,,,,,,,
17,,instruction,causal-graph1,49204,male,34,English,United States of America,Right,R562382867540gxrw,1.0,,,,,,,
17,,instruction,causal-graph1,63148,male,34,English,United States of America,Right,R562382867540gxrw,,,,,,,,
17,,instruction,causal-graph1,91634,male,34,English,United States of America,Right,R562382867540gxrw,1.0,,,,,,,
17,,instruction,image-button-response,103508,male,34,English,United States of America,Right,R562382867540gxrw,,,,,,,,
17,,instruction,survey-multi-choice,162588,male,34,English,United States of America,Right,R562382867540gxrw,,"{""Q0"":"" To decide what caused the activation of the GCM"",""Q1"":"" A GCM is a square marked with a star"",""Q2"":"" A GCM becomes active if all of its inputs are active"",""Q3"":"" You should click on just one detector in each network""}",,,,,,
