subject_id,rt,stimulus,trial_type,time_elapsed,gender,age,language,country,sampling,turkcode,nb_of_run,responses,stim_type,length,state_OR_event,branch_first,time_interval,node_selected
1,,instruction,image-button-response,57391,male,52,English,United States of America,Right,R568953627240gxrw,,,,,,,,
1,,instruction,causal-graph1,74607,male,52,English,United States of America,Right,R568953627240gxrw,,,,,,,,
1,,instruction,causal-graph1,134847,male,52,English,United States of America,Right,R568953627240gxrw,1.0,,,,,,,
1,,instruction,causal-graph1,176598,male,52,English,United States of America,Right,R568953627240gxrw,,,,,,,,
1,,instruction,causal-graph1,210198,male,52,English,United States of America,Right,R568953627240gxrw,1.0,,,,,,,
1,,instruction,image-button-response,225262,male,52,English,United States of America,Right,R568953627240gxrw,,,,,,,,
1,,instruction,survey-multi-choice,270425,male,52,English,United States of America,Right,R568953627240gxrw,,"{""Q0"":"" To decide what caused the activation of the GCM"",""Q1"":"" A detector becomes active if it absorbs a radioactive particle"",""Q2"":"" A GCM becomes active if all of its inputs are active"",""Q3"":"" You should assign a number to every detector in every network""}",,,,,,
1,,instruction,image-button-response,278392,male,52,English,United States of America,Right,R568953627240gxrw,,,,,,,,
1,,instruction,image-button-response,280607,male,52,English,United States of America,Right,R568953627240gxrw,,,,,,,,
1,,instruction,causal-graph1,282751,male,52,English,United States of America,Right,R568953627240gxrw,,,,,,,,
1,,instruction,causal-graph1,292791,male,52,English,United States of America,Right,R568953627240gxrw,1.0,,,,,,,
1,,instruction,causal-graph1,297231,male,52,English,United States of America,Right,R568953627240gxrw,,,,,,,,
1,,instruction,causal-graph1,307446,male,52,English,United States of America,Right,R568953627240gxrw,1.0,,,,,,,
1,,instruction,image-button-response,309686,male,52,English,United States of America,Right,R568953627240gxrw,,,,,,,,
1,,instruction,survey-multi-choice,357943,male,52,English,United States of America,Right,R568953627240gxrw,,"{""Q0"":"" To decide what caused the activation of the GCM"",""Q1"":"" A detector becomes active if it absorbs a radioactive particle"",""Q2"":"" A GCM becomes active if all of its inputs are active"",""Q3"":"" You should assign a number to every detector in every network""}",,,,,,
1,,instruction,image-button-response,360766,male,52,English,United States of America,Right,R568953627240gxrw,,,,,,,,
1,,instruction,image-button-response,366759,male,52,English,United States of America,Right,R568953627240gxrw,,,,,,,,
1,,instruction,causal-graph1,371831,male,52,English,United States of America,Right,R568953627240gxrw,,,,,,,,
1,,instruction,causal-graph1,397679,male,52,English,United States of America,Right,R568953627240gxrw,1.0,,,,,,,
1,,instruction,causal-graph1,408647,male,52,English,United States of America,Right,R568953627240gxrw,,,,,,,,
1,,instruction,causal-graph1,428775,male,52,English,United States of America,Right,R568953627240gxrw,1.0,,,,,,,
1,,instruction,image-button-response,436694,male,52,English,United States of America,Right,R568953627240gxrw,,,,,,,,
1,,instruction,survey-multi-choice,485337,male,52,English,United States of America,Right,R568953627240gxrw,,"{""Q0"":"" To decide what caused the activation of the GCM"",""Q1"":"" A detector becomes active if it absorbs a radioactive particle"",""Q2"":"" A GCM becomes active if all of its inputs are active"",""Q3"":"" You should click on only one detector in each network""}",,,,,,
1,,instruction,image-button-response,488455,male,52,English,United States of America,Right,R568953627240gxrw,,,,,,,,
1,,instruction,image-button-response,492303,male,52,English,United States of America,Right,R568953627240gxrw,,,,,,,,
1,,instruction,causal-graph1,525063,male,52,English,United States of America,Right,R568953627240gxrw,,,,,,,,
1,,instruction,causal-graph1,611855,male,52,English,United States of America,Right,R568953627240gxrw,1.0,,,,,,,
1,,instruction,causal-graph1,629599,male,52,English,United States of America,Right,R568953627240gxrw,,,,,,,,
1,,instruction,causal-graph1,683079,male,52,English,United States of America,Right,R568953627240gxrw,1.0,,,,,,,
1,,instruction,image-button-response,705975,male,52,English,United States of America,Right,R568953627240gxrw,,,,,,,,
1,,instruction,survey-multi-choice,821024,male,52,English,United States of America,Right,R568953627240gxrw,,"{""Q0"":"" To decide what causes the activation of each detector"",""Q1"":"" A detector becomes active if it absorbs a radioactive particle"",""Q2"":"" A GCM becomes active if all of its inputs are active"",""Q3"":"" Some detectors are not clickable""}",,,,,,
1,,instruction,image-button-response,823753,male,52,English,United States of America,Right,R568953627240gxrw,,,,,,,,
1,,instruction,image-button-response,827007,male,52,English,United States of America,Right,R568953627240gxrw,,,,,,,,
1,,instruction,causal-graph1,840856,male,52,English,United States of America,Right,R568953627240gxrw,,,,,,,,
1,,instruction,causal-graph1,865743,male,52,English,United States of America,Right,R568953627240gxrw,1.0,,,,,,,
1,,instruction,causal-graph1,882231,male,52,English,United States of America,Right,R568953627240gxrw,,,,,,,,
1,,instruction,causal-graph1,894728,male,52,English,United States of America,Right,R568953627240gxrw,1.0,,,,,,,
1,,instruction,image-button-response,901063,male,52,English,United States of America,Right,R568953627240gxrw,,,,,,,,
1,,instruction,survey-multi-choice,1039704,male,52,English,United States of America,Right,R568953627240gxrw,,"{""Q0"":"" To decide what caused the activation of the GCM"",""Q1"":"" A detector becomes active if it absorbs a radioactive particle"",""Q2"":"" A GCM becomes active if all of its inputs are active"",""Q3"":"" Some detectors are not clickable""}",,,,,,
1,,instruction,image-button-response,1052647,male,52,English,United States of America,Right,R568953627240gxrw,,,,,,,,
1,,instruction,image-button-response,1056007,male,52,English,United States of America,Right,R568953627240gxrw,,,,,,,,
1,,instruction,causal-graph1,1080167,male,52,English,United States of America,Right,R568953627240gxrw,,,,,,,,
1,,instruction,causal-graph1,1130831,male,52,English,United States of America,Right,R568953627240gxrw,1.0,,,,,,,
1,,instruction,causal-graph1,1170127,male,52,English,United States of America,Right,R568953627240gxrw,,,,,,,,
1,,instruction,causal-graph1,1212544,male,52,English,United States of America,Right,R568953627240gxrw,1.0,,,,,,,
1,,instruction,image-button-response,1244119,male,52,English,United States of America,Right,R568953627240gxrw,,,,,,,,
1,,instruction,survey-multi-choice,1501737,male,52,English,United States of America,Right,R568953627240gxrw,,"{""Q0"":"" To decide what caused the activation of the GCM"",""Q1"":"" A detector becomes active if it absorbs a radioactive particle"",""Q2"":"" A GCM becomes active if all of its inputs are active"",""Q3"":"" You should click on only one detector in each network""}",,,,,,
1,,instruction,image-button-response,2917114,male,52,English,United States of America,Right,R568953627240gxrw,,,,,,,,
1,,instruction,image-button-response,2928881,male,52,English,United States of America,Right,R568953627240gxrw,,,,,,,,
1,,instruction,causal-graph1,2936098,male,52,English,United States of America,Right,R568953627240gxrw,,,,,,,,
1,,instruction,causal-graph1,2966714,male,52,English,United States of America,Right,R568953627240gxrw,1.0,,,,,,,
1,,instruction,causal-graph1,2980041,male,52,English,United States of America,Right,R568953627240gxrw,,,,,,,,
1,,instruction,causal-graph1,3002538,male,52,English,United States of America,Right,R568953627240gxrw,1.0,,,,,,,
1,,instruction,image-button-response,3019674,male,52,English,United States of America,Right,R568953627240gxrw,,,,,,,,
1,,instruction,survey-multi-choice,3062305,male,52,English,United States of America,Right,R568953627240gxrw,,"{""Q0"":"" To decide what caused the activation of the GCM"",""Q1"":"" A detector becomes active if it absorbs a radioactive particle or receives input from an active detector"",""Q2"":"" A GCM becomes active if all of its inputs are active"",""Q3"":"" You should click on only one detector in each network""}",,,,,,
1,,instruction,image-button-response,3072521,male,52,English,United States of America,Right,R568953627240gxrw,,,,,,,,
1,24065.43999999808,branch_RTLE3,causal-graph1,3142763,male,52,English,United States of America,Right,R568953627240gxrw,3.0,,AND_Gate,Long,Event,Top,Long,node14
1,8017.889999999199,chain_RM,causal-graph1,3173410,male,52,English,United States of America,Right,R568953627240gxrw,3.0,,Chain,Medium,,,,node5
1,12390.789999997707,branch_RTLE1,causal-graph1,3188250,male,52,English,United States of America,Right,R568953627240gxrw,1.0,,AND_Gate,Long,Event,Top,Short,node14
1,13694.030000002587,branch_RBSE2,causal-graph1,3205146,male,52,English,United States of America,Right,R568953627240gxrw,1.0,,AND_Gate,Short,Event,Bottom,Medium,node7
1,15152.995000000576,chain_RL,causal-graph1,3248770,male,52,English,United States of America,Right,R568953627240gxrw,2.0,,Chain,Long,,,,node3
1,8122.540000000036,chain_RS,causal-graph1,3259980,male,52,English,United States of America,Right,R568953627240gxrw,1.0,,Chain,Short,,,,node7
1,14381.134999999309,branch_RBME3,causal-graph1,3277834,male,52,English,United States of America,Right,R568953627240gxrw,1.0,,AND_Gate,Medium,Event,Bottom,Long,node7
1,10532.72999999905,branch_RBSS,causal-graph1,3299387,male,52,English,United States of America,Right,R568953627240gxrw,1.0,,AND_Gate,Short,State,Bottom,,node7
1,10214.510000001172,branch_RTME1,causal-graph1,3313587,male,52,English,United States of America,Right,R568953627240gxrw,1.0,,AND_Gate,Medium,Event,Top,Short,node14
1,14544.224999997763,branch_RBME2,causal-graph1,3330818,male,52,English,United States of America,Right,R568953627240gxrw,1.0,,AND_Gate,Medium,Event,Bottom,Medium,node7
1,8581.164999999572,branch_RBMS,causal-graph1,3342298,male,52,English,United States of America,Right,R568953627240gxrw,1.0,,AND_Gate,Medium,State,Bottom,,node7
1,13422.694999997504,branch_RTLE2,causal-graph1,3358401,male,52,English,United States of America,Right,R568953627240gxrw,1.0,,AND_Gate,Long,Event,Top,Medium,node14
1,8311.809999999125,branch_RTLS,causal-graph1,3404986,male,52,English,United States of America,Right,R568953627240gxrw,2.0,,AND_Gate,Long,State,Top,,node14
1,14170.029999997469,branch_RTSE3,causal-graph1,3421586,male,52,English,United States of America,Right,R568953627240gxrw,1.0,,AND_Gate,Short,Event,Top,Long,node14
1,10812.695000000764,branch_RBSE1,causal-graph1,3434819,male,52,English,United States of America,Right,R568953627240gxrw,1.0,,AND_Gate,Short,Event,Bottom,Short,node7
1,,instruction,image-button-response,3440250,male,52,English,United States of America,Right,R568953627240gxrw,,,,,,,,
1,9886.684999997262,comment,survey-text,3450147,male,52,English,United States of America,Right,R568953627240gxrw,,"{""Q0"":""""}",,,,,,
2,,instruction,image-button-response,37313,male,34,English,United States of America,Left,R563944617690gxrw,,,,,,,,
2,,instruction,causal-graph1,51052,male,34,English,United States of America,Left,R563944617690gxrw,,,,,,,,
2,,instruction,causal-graph1,81263,male,34,English,United States of America,Left,R563944617690gxrw,1.0,,,,,,,
2,,instruction,causal-graph1,108992,male,34,English,United States of America,Left,R563944617690gxrw,,,,,,,,
2,,instruction,causal-graph1,146534,male,34,English,United States of America,Left,R563944617690gxrw,1.0,,,,,,,
2,,instruction,image-button-response,160484,male,34,English,United States of America,Left,R563944617690gxrw,,,,,,,,
2,,instruction,survey-multi-choice,235405,male,34,English,United States of America,Left,R563944617690gxrw,,"{""Q0"":"" To decide what caused the activation of the GCM"",""Q1"":"" A detector becomes active if it absorbs a radioactive particle"",""Q2"":"" A GCM becomes active if all of its inputs are active"",""Q3"":"" You should click on only one detector in each network""}",,,,,,
2,,instruction,image-button-response,241104,male,34,English,United States of America,Left,R563944617690gxrw,,,,,,,,
2,,instruction,image-button-response,244204,male,34,English,United States of America,Left,R563944617690gxrw,,,,,,,,
2,,instruction,causal-graph1,251694,male,34,English,United States of America,Left,R563944617690gxrw,,,,,,,,
2,,instruction,causal-graph1,273634,male,34,English,United States of America,Left,R563944617690gxrw,1.0,,,,,,,
2,,instruction,causal-graph1,288825,male,34,English,United States of America,Left,R563944617690gxrw,,,,,,,,
2,,instruction,causal-graph1,306266,male,34,English,United States of America,Left,R563944617690gxrw,1.0,,,,,,,
2,,instruction,image-button-response,323616,male,34,English,United States of America,Left,R563944617690gxrw,,,,,,,,
2,,instruction,survey-multi-choice,368446,male,34,English,United States of America,Left,R563944617690gxrw,,"{""Q0"":"" To decide what caused the activation of the GCM"",""Q1"":"" A detector becomes active if it absorbs a radioactive particle or receives input from an active detector"",""Q2"":"" A GCM becomes active if all of its inputs are active"",""Q3"":"" You should click on only one detector in each network""}",,,,,,
2,,instruction,image-button-response,371035,male,34,English,United States of America,Left,R563944617690gxrw,,,,,,,,
2,16420.645000005607,chain_LM,causal-graph1,390807,male,34,English,United States of America,Left,R563944617690gxrw,1.0,,Chain,Medium,,,,node5
2,18683.57500003185,branch_LTME1,causal-graph1,413840,male,34,English,United States of America,Left,R563944617690gxrw,1.0,,AND_Gate,Medium,Event,Top,Short,node5
2,16415.594999969468,branch_LTSE2,causal-graph1,432959,male,34,English,United States of America,Left,R563944617690gxrw,1.0,,AND_Gate,Short,Event,Top,Medium,node7
2,17638.75000004191,branch_LTLS,causal-graph1,455290,male,34,English,United States of America,Left,R563944617690gxrw,1.0,,AND_Gate,Long,State,Top,,node10
2,15793.039999960456,branch_LTLE2,causal-graph1,472939,male,34,English,United States of America,Left,R563944617690gxrw,1.0,,AND_Gate,Long,Event,Top,Medium,node10
2,13119.399999966843,branch_LTSE1,causal-graph1,508014,male,34,English,United States of America,Left,R563944617690gxrw,1.0,,AND_Gate,Short,Event,Top,Short,node14
2,13478.034999978265,branch_LTME2,causal-graph1,523153,male,34,English,United States of America,Left,R563944617690gxrw,1.0,,AND_Gate,Medium,Event,Top,Medium,node12
2,16727.359999960754,branch_LBLE3,causal-graph1,541754,male,34,English,United States of America,Left,R563944617690gxrw,1.0,,AND_Gate,Long,Event,Bottom,Long,node3
2,11459.659999993164,branch_LBLE1,causal-graph1,555125,male,34,English,United States of America,Left,R563944617690gxrw,1.0,,AND_Gate,Long,Event,Bottom,Short,node3
2,10205.14999999432,chain_LS,causal-graph1,567545,male,34,English,United States of America,Left,R563944617690gxrw,1.0,,Chain,Short,,,,node7
2,16000.274999998508,chain_LL,causal-graph1,586165,male,34,English,United States of America,Left,R563944617690gxrw,1.0,,Chain,Long,,,,node3
2,9514.189999958036,branch_LTSS,causal-graph1,597076,male,34,English,United States of America,Left,R563944617690gxrw,1.0,,AND_Gate,Short,State,Top,,node14
2,14382.035000016911,branch_LTSE3,causal-graph1,613458,male,34,English,United States of America,Left,R563944617690gxrw,1.0,,AND_Gate,Short,Event,Top,Long,node14
2,14675.430000002962,branch_LTME3,causal-graph1,629590,male,34,English,United States of America,Left,R563944617690gxrw,1.0,,AND_Gate,Medium,Event,Top,Long,node12
2,11480.990000010936,branch_LBMS,causal-graph1,643057,male,34,English,United States of America,Left,R563944617690gxrw,1.0,,AND_Gate,Medium,State,Bottom,,node5
2,,instruction,image-button-response,647238,male,34,English,United States of America,Left,R563944617690gxrw,,,,,,,,
2,153256.51000003563,comment,survey-text,800505,male,34,English,United States of America,Left,R563944617690gxrw,,"{""Q0"":""""}",,,,,,
3,,instruction,image-button-response,6763,male,27,English,United States of America,Right,R564820277880gxrw,,,,,,,,
3,,instruction,causal-graph1,9159,male,27,English,United States of America,Right,R564820277880gxrw,,,,,,,,
3,,instruction,causal-graph1,17519,male,27,English,United States of America,Right,R564820277880gxrw,1.0,,,,,,,
3,,instruction,causal-graph1,18502,male,27,English,United States of America,Right,R564820277880gxrw,,,,,,,,
3,,instruction,causal-graph1,28263,male,27,English,United States of America,Right,R564820277880gxrw,1.0,,,,,,,
3,,instruction,image-button-response,28845,male,27,English,United States of America,Right,R564820277880gxrw,,,,,,,,
3,,instruction,survey-multi-choice,35775,male,27,English,United States of America,Right,R564820277880gxrw,,"{""Q0"":"" To decide what caused the activation of the GCM"",""Q1"":"" A detector becomes active if it receives input from an active detector"",""Q2"":"" A GCM becomes active if it absorbs a radioactive particle"",""Q3"":"" You should assign a number to every detector in every network""}",,,,,,
3,,instruction,image-button-response,37872,male,27,English,United States of America,Right,R564820277880gxrw,,,,,,,,
3,,instruction,image-button-response,39650,male,27,English,United States of America,Right,R564820277880gxrw,,,,,,,,
3,,instruction,causal-graph1,42950,male,27,English,United States of America,Right,R564820277880gxrw,,,,,,,,
3,,instruction,causal-graph1,59808,male,27,English,United States of America,Right,R564820277880gxrw,1.0,,,,,,,
3,,instruction,causal-graph1,68820,male,27,English,United States of America,Right,R564820277880gxrw,,,,,,,,
3,,instruction,causal-graph1,84247,male,27,English,United States of America,Right,R564820277880gxrw,1.0,,,,,,,
3,,instruction,image-button-response,88797,male,27,English,United States of America,Right,R564820277880gxrw,,,,,,,,
3,,instruction,survey-multi-choice,109226,male,27,English,United States of America,Right,R564820277880gxrw,,"{""Q0"":"" To decide what caused the activation of the GCM"",""Q1"":"" A detector becomes active if it absorbs a radioactive particle or receives input from an active detector"",""Q2"":"" A GCM becomes active if it absorbs a radioactive particle"",""Q3"":"" Some detectors are not clickable""}",,,,,,
3,,instruction,image-button-response,110830,male,27,English,United States of America,Right,R564820277880gxrw,,,,,,,,
3,,instruction,image-button-response,112065,male,27,English,United States of America,Right,R564820277880gxrw,,,,,,,,
3,,instruction,causal-graph1,137005,male,27,English,United States of America,Right,R564820277880gxrw,,,,,,,,
3,,instruction,causal-graph1,145254,male,27,English,United States of America,Right,R564820277880gxrw,1.0,,,,,,,
3,,instruction,causal-graph1,150310,male,27,English,United States of America,Right,R564820277880gxrw,,,,,,,,
3,,instruction,causal-graph1,160901,male,27,English,United States of America,Right,R564820277880gxrw,1.0,,,,,,,
3,,instruction,image-button-response,162348,male,27,English,United States of America,Right,R564820277880gxrw,,,,,,,,
3,,instruction,survey-multi-choice,193780,male,27,English,United States of America,Right,R564820277880gxrw,,"{""Q0"":"" To decide what caused the activation of the GCM"",""Q1"":"" A detector becomes active if it absorbs a radioactive particle"",""Q2"":"" A GCM becomes active if all of its inputs are active"",""Q3"":"" Some detectors are not clickable""}",,,,,,
3,,instruction,image-button-response,194694,male,27,English,United States of America,Right,R564820277880gxrw,,,,,,,,
3,,instruction,image-button-response,195765,male,27,English,United States of America,Right,R564820277880gxrw,,,,,,,,
3,,instruction,causal-graph1,198809,male,27,English,United States of America,Right,R564820277880gxrw,,,,,,,,
3,,instruction,causal-graph1,215480,male,27,English,United States of America,Right,R564820277880gxrw,1.0,,,,,,,
3,,instruction,causal-graph1,228123,male,27,English,United States of America,Right,R564820277880gxrw,,,,,,,,
3,,instruction,causal-graph1,248980,male,27,English,United States of America,Right,R564820277880gxrw,1.0,,,,,,,
3,,instruction,image-button-response,255941,male,27,English,United States of America,Right,R564820277880gxrw,,,,,,,,
3,,instruction,survey-multi-choice,277041,male,27,English,United States of America,Right,R564820277880gxrw,,"{""Q0"":"" To decide what caused the activation of the GCM"",""Q1"":"" A detector becomes active if it absorbs a radioactive particle"",""Q2"":"" A GCM becomes active if all of its inputs are active"",""Q3"":"" You should click on only one detector in each network""}",,,,,,
3,,instruction,image-button-response,278224,male,27,English,United States of America,Right,R564820277880gxrw,,,,,,,,
3,,instruction,image-button-response,278760,male,27,English,United States of America,Right,R564820277880gxrw,,,,,,,,
3,,instruction,causal-graph1,278916,male,27,English,United States of America,Right,R564820277880gxrw,,,,,,,,
3,,instruction,causal-graph1,282229,male,27,English,United States of America,Right,R564820277880gxrw,1.0,,,,,,,
3,,instruction,causal-graph1,283474,male,27,English,United States of America,Right,R564820277880gxrw,,,,,,,,
3,,instruction,causal-graph1,292435,male,27,English,United States of America,Right,R564820277880gxrw,1.0,,,,,,,
3,,instruction,image-button-response,296650,male,27,English,United States of America,Right,R564820277880gxrw,,,,,,,,
3,,instruction,survey-multi-choice,318650,male,27,English,United States of America,Right,R564820277880gxrw,,"{""Q0"":"" To decide what caused the activation of the GCM"",""Q1"":"" A detector becomes active if it absorbs a radioactive particle or receives input from an active detector"",""Q2"":"" A GCM becomes active if all of its inputs are active"",""Q3"":"" You should click on only one detector in each network""}",,,,,,
3,,instruction,image-button-response,319800,male,27,English,United States of America,Right,R564820277880gxrw,,,,,,,,
3,26321.890000006533,chain_RL,causal-graph1,351011,male,27,English,United States of America,Right,R564820277880gxrw,1.0,,Chain,Long,,,,node3
3,15100.454999992508,branch_RTME2,causal-graph1,367980,male,27,English,United States of America,Right,R564820277880gxrw,1.0,,AND_Gate,Medium,Event,Top,Medium,node5
3,9410.154999990482,branch_RBSE1,causal-graph1,378931,male,27,English,United States of America,Right,R564820277880gxrw,1.0,,AND_Gate,Short,Event,Bottom,Short,node14
3,7525.859999994283,chain_RM,causal-graph1,387627,male,27,English,United States of America,Right,R564820277880gxrw,1.0,,Chain,Medium,,,,node5
3,12937.919999996666,branch_RBSE3,causal-graph1,401367,male,27,English,United States of America,Right,R564820277880gxrw,1.0,,AND_Gate,Short,Event,Bottom,Long,node14
3,14007.375000001048,branch_RTME3,causal-graph1,415809,male,27,English,United States of America,Right,R564820277880gxrw,1.0,,AND_Gate,Medium,Event,Top,Long,node5
3,12323.034999993979,branch_RBSE2,causal-graph1,429021,male,27,English,United States of America,Right,R564820277880gxrw,1.0,,AND_Gate,Short,Event,Bottom,Medium,node14
3,9412.995000006049,branch_RTMS,causal-graph1,439300,male,27,English,United States of America,Right,R564820277880gxrw,1.0,,AND_Gate,Medium,State,Top,,node12
3,14267.055000003891,branch_RBLE3,causal-graph1,454366,male,27,English,United States of America,Right,R564820277880gxrw,1.0,,AND_Gate,Long,Event,Bottom,Long,node10
3,11227.76999999769,chain_RS,causal-graph1,466617,male,27,English,United States of America,Right,R564820277880gxrw,1.0,,Chain,Short,,,,node7
3,10570.005000001403,branch_RBME1,causal-graph1,477878,male,27,English,United States of America,Right,R564820277880gxrw,1.0,,AND_Gate,Medium,Event,Bottom,Short,node12
3,7845.069999995758,branch_RTSS,causal-graph1,486166,male,27,English,United States of America,Right,R564820277880gxrw,1.0,,AND_Gate,Short,State,Top,,node7
3,10387.679999999818,branch_RBLE1,causal-graph1,497049,male,27,English,United States of America,Right,R564820277880gxrw,1.0,,AND_Gate,Long,Event,Bottom,Short,node3
3,29394.295000005517,branch_RTLE2,causal-graph1,527204,male,27,English,United States of America,Right,R564820277880gxrw,1.0,,AND_Gate,Long,Event,Top,Medium,node3
3,9065.954999998212,branch_RTLS,causal-graph1,537158,male,27,English,United States of America,Right,R564820277880gxrw,1.0,,AND_Gate,Long,State,Top,,node3
3,,instruction,image-button-response,538378,male,27,English,United States of America,Right,R564820277880gxrw,,,,,,,,
3,1763.1899999978484,comment,survey-text,540151,male,27,English,United States of America,Right,R564820277880gxrw,,"{""Q0"":""""}",,,,,,
4,,instruction,image-button-response,3854,male,33,english,United States of America,Right,R568786647360gxrw,,,,,,,,
4,,instruction,causal-graph1,8000,male,33,english,United States of America,Right,R568786647360gxrw,,,,,,,,
4,,instruction,causal-graph1,27085,male,33,english,United States of America,Right,R568786647360gxrw,2.0,,,,,,,
4,,instruction,causal-graph1,35944,male,33,english,United States of America,Right,R568786647360gxrw,,,,,,,,
4,,instruction,causal-graph1,52303,male,33,english,United States of America,Right,R568786647360gxrw,1.0,,,,,,,
4,,instruction,image-button-response,61248,male,33,english,United States of America,Right,R568786647360gxrw,,,,,,,,
4,,instruction,survey-multi-choice,96649,male,33,english,United States of America,Right,R568786647360gxrw,,"{""Q0"":"" To decide what caused the activation of the GCM"",""Q1"":"" A detector becomes active if it absorbs a radioactive particle or receives input from an active detector"",""Q2"":"" A GCM becomes active if all of its inputs are active"",""Q3"":"" You should click on only one detector in each network""}",,,,,,
4,,instruction,image-button-response,98418,male,33,english,United States of America,Right,R568786647360gxrw,,,,,,,,
4,13554.490000009537,chain_RL,causal-graph1,114116,male,33,english,United States of America,Right,R568786647360gxrw,1.0,,Chain,Long,,,,node3
4,11544.80000003241,branch_RTMS,causal-graph1,127871,male,33,english,United States of America,Right,R568786647360gxrw,1.0,,AND_Gate,Medium,State,Top,,node12
4,12661.580000072718,branch_RTME2,causal-graph1,143305,male,33,english,United States of America,Right,R568786647360gxrw,1.0,,AND_Gate,Medium,Event,Top,Medium,node12
4,13848.880000063218,branch_RTSE2,causal-graph1,169021,male,33,english,United States of America,Right,R568786647360gxrw,1.0,,AND_Gate,Short,Event,Top,Medium,node14
4,10409.999999916181,branch_RTSE1,causal-graph1,181625,male,33,english,United States of America,Right,R568786647360gxrw,1.0,,AND_Gate,Short,Event,Top,Short,node14
4,7920.304999919608,chain_RM,causal-graph1,192646,male,33,english,United States of America,Right,R568786647360gxrw,1.0,,Chain,Medium,,,,node5
4,15657.54000004381,branch_RTLE3,causal-graph1,210248,male,33,english,United States of America,Right,R568786647360gxrw,1.0,,AND_Gate,Long,Event,Top,Long,node10
4,12419.280000030994,branch_RTLE2,causal-graph1,224675,male,33,english,United States of America,Right,R568786647360gxrw,1.0,,AND_Gate,Long,Event,Top,Medium,node10
4,13563.635000027714,branch_RBSE3,causal-graph1,240099,male,33,english,United States of America,Right,R568786647360gxrw,1.0,,AND_Gate,Short,Event,Bottom,Long,node7
4,7875.5899999523535,branch_RBLS,causal-graph1,250231,male,33,english,United States of America,Right,R568786647360gxrw,1.0,,AND_Gate,Long,State,Bottom,,node3
4,10084.125000052154,branch_RTME1,causal-graph1,262110,male,33,english,United States of America,Right,R568786647360gxrw,1.0,,AND_Gate,Medium,Event,Top,Short,node12
4,10168.979999958538,branch_RBLE1,causal-graph1,273925,male,33,english,United States of America,Right,R568786647360gxrw,1.0,,AND_Gate,Long,Event,Bottom,Short,node3
4,14942.519999924116,branch_RTME3,causal-graph1,290549,male,33,english,United States of America,Right,R568786647360gxrw,1.0,,AND_Gate,Medium,Event,Top,Long,node12
4,7723.78999995999,branch_RTSS,causal-graph1,300821,male,33,english,United States of America,Right,R568786647360gxrw,1.0,,AND_Gate,Short,State,Top,,node14
4,7483.059999998659,chain_RS,causal-graph1,309853,male,33,english,United States of America,Right,R568786647360gxrw,1.0,,Chain,Short,,,,node7
4,,instruction,image-button-response,311654,male,33,english,United States of America,Right,R568786647360gxrw,,,,,,,,
4,11363.1550000282,comment,survey-text,323033,male,33,english,United States of America,Right,R568786647360gxrw,,"{""Q0"":""""}",,,,,,
5,,instruction,image-button-response,7048,male,30,English,United States of America,Right,R569724617580gxrw,,,,,,,,
5,,instruction,causal-graph1,12047,male,30,English,United States of America,Right,R569724617580gxrw,,,,,,,,
5,,instruction,causal-graph1,25561,male,30,English,United States of America,Right,R569724617580gxrw,1.0,,,,,,,
5,,instruction,causal-graph1,38817,male,30,English,United States of America,Right,R569724617580gxrw,,,,,,,,
5,,instruction,causal-graph1,55676,male,30,English,United States of America,Right,R569724617580gxrw,1.0,,,,,,,
5,,instruction,image-button-response,66159,male,30,English,United States of America,Right,R569724617580gxrw,,,,,,,,
5,,instruction,survey-multi-choice,96360,male,30,English,United States of America,Right,R569724617580gxrw,,"{""Q0"":"" To decide what caused the activation of the GCM"",""Q1"":"" A detector becomes active if it receives input from an active detector"",""Q2"":"" A GCM becomes active if all of its inputs are active"",""Q3"":"" You should click on only one detector in each network""}",,,,,,
5,,instruction,image-button-response,101004,male,30,English,United States of America,Right,R569724617580gxrw,,,,,,,,
5,,instruction,image-button-response,102883,male,30,English,United States of America,Right,R569724617580gxrw,,,,,,,,
5,,instruction,causal-graph1,105225,male,30,English,United States of America,Right,R569724617580gxrw,,,,,,,,
5,,instruction,causal-graph1,116194,male,30,English,United States of America,Right,R569724617580gxrw,1.0,,,,,,,
5,,instruction,causal-graph1,119636,male,30,English,United States of America,Right,R569724617580gxrw,,,,,,,,
5,,instruction,causal-graph1,140119,male,30,English,United States of America,Right,R569724617580gxrw,1.0,,,,,,,
5,,instruction,image-button-response,141819,male,30,English,United States of America,Right,R569724617580gxrw,,,,,,,,
5,,instruction,survey-multi-choice,175625,male,30,English,United States of America,Right,R569724617580gxrw,,"{""Q0"":"" To decide what caused the activation of the GCM"",""Q1"":"" A detector becomes active if it absorbs a radioactive particle"",""Q2"":"" A GCM becomes active if all of its inputs are active"",""Q3"":"" You should click on only one detector in each network""}",,,,,,
5,,instruction,image-button-response,177350,male,30,English,United States of America,Right,R569724617580gxrw,,,,,,,,
5,,instruction,image-button-response,183416,male,30,English,United States of America,Right,R569724617580gxrw,,,,,,,,
5,,instruction,causal-graph1,188152,male,30,English,United States of America,Right,R569724617580gxrw,,,,,,,,
5,,instruction,causal-graph1,203090,male,30,English,United States of America,Right,R569724617580gxrw,1.0,,,,,,,
5,,instruction,causal-graph1,213771,male,30,English,United States of America,Right,R569724617580gxrw,,,,,,,,
5,,instruction,causal-graph1,234558,male,30,English,United States of America,Right,R569724617580gxrw,1.0,,,,,,,
5,,instruction,image-button-response,244219,male,30,English,United States of America,Right,R569724617580gxrw,,,,,,,,
5,,instruction,survey-multi-choice,280838,male,30,English,United States of America,Right,R569724617580gxrw,,"{""Q0"":"" To decide what caused the activation of the GCM"",""Q1"":"" A detector becomes active if it absorbs a radioactive particle"",""Q2"":"" A GCM becomes active if all of its inputs are active"",""Q3"":"" Some detectors are not clickable""}",,,,,,
5,,instruction,image-button-response,285911,male,30,English,United States of America,Right,R569724617580gxrw,,,,,,,,
5,,instruction,image-button-response,287977,male,30,English,United States of America,Right,R569724617580gxrw,,,,,,,,
5,,instruction,causal-graph1,291639,male,30,English,United States of America,Right,R569724617580gxrw,,,,,,,,
5,,instruction,causal-graph1,311096,male,30,English,United States of America,Right,R569724617580gxrw,1.0,,,,,,,
5,,instruction,causal-graph1,326291,male,30,English,United States of America,Right,R569724617580gxrw,,,,,,,,
5,,instruction,causal-graph1,346425,male,30,English,United States of America,Right,R569724617580gxrw,1.0,,,,,,,
5,,instruction,image-button-response,357176,male,30,English,United States of America,Right,R569724617580gxrw,,,,,,,,
5,,instruction,survey-multi-choice,411916,male,30,English,United States of America,Right,R569724617580gxrw,,"{""Q0"":"" To decide what caused the activation of the GCM"",""Q1"":"" A detector becomes active if it absorbs a radioactive particle or receives input from an active detector"",""Q2"":"" A GCM becomes active if all of its inputs are active"",""Q3"":"" You should click on only one detector in each network""}",,,,,,
5,,instruction,image-button-response,413615,male,30,English,United States of America,Right,R569724617580gxrw,,,,,,,,
5,23109.0,branch_RBSE2,causal-graph1,438475,male,30,English,United States of America,Right,R569724617580gxrw,1.0,,AND_Gate,Short,Event,Bottom,Medium,node7
5,16189.0,branch_RBMS,causal-graph1,456008,male,30,English,United States of America,Right,R569724617580gxrw,1.0,,AND_Gate,Medium,State,Bottom,,node7
5,27715.0,branch_RTME3,causal-graph1,485881,male,30,English,United States of America,Right,R569724617580gxrw,1.0,,AND_Gate,Medium,Event,Top,Long,node5
5,22314.0,branch_RTLE2,causal-graph1,509587,male,30,English,United States of America,Right,R569724617580gxrw,1.0,,AND_Gate,Long,Event,Top,Medium,node3
5,10246.0,chain_RL,causal-graph1,521751,male,30,English,United States of America,Right,R569724617580gxrw,1.0,,Chain,Long,,,,node3
5,12476.0,branch_RBME2,causal-graph1,543454,male,30,English,United States of America,Right,R569724617580gxrw,1.0,,AND_Gate,Medium,Event,Bottom,Medium,node5
5,10409.0,branch_RBLE1,causal-graph1,555064,male,30,English,United States of America,Right,R569724617580gxrw,1.0,,AND_Gate,Long,Event,Bottom,Short,node3
5,10945.0,chain_RM,causal-graph1,567217,male,30,English,United States of America,Right,R569724617580gxrw,1.0,,Chain,Medium,,,,node5
5,13618.0,branch_RBSE3,causal-graph1,582022,male,30,English,United States of America,Right,R569724617580gxrw,1.0,,AND_Gate,Short,Event,Bottom,Long,node7
5,8846.0,chain_RS,causal-graph1,591830,male,30,English,United States of America,Right,R569724617580gxrw,1.0,,Chain,Short,,,,node7
5,9583.0,branch_RBSE1,causal-graph1,602898,male,30,English,United States of America,Right,R569724617580gxrw,1.0,,AND_Gate,Short,Event,Bottom,Short,node7
5,7704.0,branch_RTSS,causal-graph1,611788,male,30,English,United States of America,Right,R569724617580gxrw,1.0,,AND_Gate,Short,State,Top,,node14
5,14300.0,branch_RBLE3,causal-graph1,627551,male,30,English,United States of America,Right,R569724617580gxrw,1.0,,AND_Gate,Long,Event,Bottom,Long,node3
5,8355.0,branch_RTLS,causal-graph1,636775,male,30,English,United States of America,Right,R569724617580gxrw,1.0,,AND_Gate,Long,State,Top,,node10
5,11824.0,branch_RBME1,causal-graph1,649465,male,30,English,United States of America,Right,R569724617580gxrw,1.0,,AND_Gate,Medium,Event,Bottom,Short,node5
5,,instruction,image-button-response,652616,male,30,English,United States of America,Right,R569724617580gxrw,,,,,,,,
5,11677.0,comment,survey-text,664298,male,30,English,United States of America,Right,R569724617580gxrw,,"{""Q0"":""""}",,,,,,
6,,instruction,image-button-response,2464,female,32,English,United States of America,Left,R566715267520gxrw,,,,,,,,
6,,instruction,causal-graph1,40254,female,32,English,United States of America,Left,R566715267520gxrw,,,,,,,,
6,,instruction,causal-graph1,52589,female,32,English,United States of America,Left,R566715267520gxrw,1.0,,,,,,,
6,,instruction,causal-graph1,56939,female,32,English,United States of America,Left,R566715267520gxrw,,,,,,,,
6,,instruction,causal-graph1,73092,female,32,English,United States of America,Left,R566715267520gxrw,1.0,,,,,,,
6,,instruction,image-button-response,74726,female,32,English,United States of America,Left,R566715267520gxrw,,,,,,,,
6,,instruction,survey-multi-choice,112886,female,32,English,United States of America,Left,R566715267520gxrw,,"{""Q0"":"" To decide what caused the activation of the GCM"",""Q1"":"" A detector becomes active if it absorbs a radioactive particle or receives input from an active detector"",""Q2"":"" A GCM becomes active if all of its inputs are active"",""Q3"":"" You should click on only one detector in each network""}",,,,,,
6,,instruction,image-button-response,114315,female,32,English,United States of America,Left,R566715267520gxrw,,,,,,,,
6,14405.634999973701,chain_LM,causal-graph1,130945,female,32,English,United States of America,Left,R566715267520gxrw,1.0,,Chain,Medium,,,,node5
6,9465.94499994535,branch_LBSS,causal-graph1,143308,female,32,English,United States of America,Left,R566715267520gxrw,1.0,,AND_Gate,Short,State,Bottom,,node7
6,13911.919999984091,branch_LBSE3,causal-graph1,160150,female,32,English,United States of America,Left,R566715267520gxrw,1.0,,AND_Gate,Short,Event,Bottom,Long,node7
6,9192.769999965094,chain_LL,causal-graph1,171611,female,32,English,United States of America,Left,R566715267520gxrw,1.0,,Chain,Long,,,,node3
6,15382.31999997515,branch_LBLE3,causal-graph1,188956,female,32,English,United States of America,Left,R566715267520gxrw,1.0,,AND_Gate,Long,Event,Bottom,Long,node3
6,7283.5549999726945,chain_LS,causal-graph1,201000,female,32,English,United States of America,Left,R566715267520gxrw,1.0,,Chain,Short,,,,node7
6,8612.68999997992,branch_LTMS,causal-graph1,213617,female,32,English,United States of America,Left,R566715267520gxrw,1.0,,AND_Gate,Medium,State,Top,,node5
6,12094.414999941364,branch_LTME2,causal-graph1,227405,female,32,English,United States of America,Left,R566715267520gxrw,1.0,,AND_Gate,Medium,Event,Top,Medium,node12
6,10194.66499995906,branch_LBSE1,causal-graph1,247460,female,32,English,United States of America,Left,R566715267520gxrw,1.0,,AND_Gate,Short,Event,Bottom,Short,node7
6,12771.455000038259,branch_LBLE1,causal-graph1,261841,female,32,English,United States of America,Left,R566715267520gxrw,1.0,,AND_Gate,Long,Event,Bottom,Short,node3
6,14380.93999994453,branch_LBME3,causal-graph1,286553,female,32,English,United States of America,Left,R566715267520gxrw,1.0,,AND_Gate,Medium,Event,Bottom,Long,node5
6,7870.630000019446,branch_LTLS,causal-graph1,296407,female,32,English,United States of America,Left,R566715267520gxrw,1.0,,AND_Gate,Long,State,Top,,node10
6,12769.500000053084,branch_LBLE2,causal-graph1,342512,female,32,English,United States of America,Left,R566715267520gxrw,1.0,,AND_Gate,Long,Event,Bottom,Medium,node3
6,11518.904999946246,branch_LBSE2,causal-graph1,355834,female,32,English,United States of America,Left,R566715267520gxrw,1.0,,AND_Gate,Short,Event,Bottom,Medium,node7
6,9730.060000088997,branch_LTME1,causal-graph1,366661,female,32,English,United States of America,Left,R566715267520gxrw,1.0,,AND_Gate,Medium,Event,Top,Short,node12
6,,instruction,image-button-response,367458,female,32,English,United States of America,Left,R566715267520gxrw,,,,,,,,
6,2365.7850000308827,comment,survey-text,369993,female,32,English,United States of America,Left,R566715267520gxrw,,"{""Q0"":""""}",,,,,,
7,,instruction,image-button-response,7574,male,40,English,United States of America,Left,R568289647350gxrw,,,,,,,,
7,,instruction,causal-graph1,12114,male,40,English,United States of America,Left,R568289647350gxrw,,,,,,,,
7,,instruction,causal-graph1,29190,male,40,English,United States of America,Left,R568289647350gxrw,2.0,,,,,,,
7,,instruction,causal-graph1,30678,male,40,English,United States of America,Left,R568289647350gxrw,,,,,,,,
7,,instruction,causal-graph1,50479,male,40,English,United States of America,Left,R568289647350gxrw,1.0,,,,,,,
7,,instruction,image-button-response,65115,male,40,English,United States of America,Left,R568289647350gxrw,,,,,,,,
7,,instruction,survey-multi-choice,110364,male,40,English,United States of America,Left,R568289647350gxrw,,"{""Q0"":"" To decide what caused the activation of the GCM"",""Q1"":"" A detector becomes active if it absorbs a radioactive particle"",""Q2"":"" A GCM becomes active if all of its inputs are active"",""Q3"":"" You should click on only one detector in each network""}",,,,,,
7,,instruction,image-button-response,114588,male,40,English,United States of America,Left,R568289647350gxrw,,,,,,,,
7,,instruction,image-button-response,118176,male,40,English,United States of America,Left,R568289647350gxrw,,,,,,,,
7,,instruction,causal-graph1,121554,male,40,English,United States of America,Left,R568289647350gxrw,,,,,,,,
7,,instruction,causal-graph1,150135,male,40,English,United States of America,Left,R568289647350gxrw,1.0,,,,,,,
7,,instruction,causal-graph1,163813,male,40,English,United States of America,Left,R568289647350gxrw,,,,,,,,
7,,instruction,causal-graph1,178412,male,40,English,United States of America,Left,R568289647350gxrw,1.0,,,,,,,
7,,instruction,image-button-response,190414,male,40,English,United States of America,Left,R568289647350gxrw,,,,,,,,
7,,instruction,survey-multi-choice,238220,male,40,English,United States of America,Left,R568289647350gxrw,,"{""Q0"":"" To decide what caused the activation of the GCM"",""Q1"":"" A detector becomes active if it absorbs a radioactive particle"",""Q2"":"" A GCM becomes active if all of its inputs are active"",""Q3"":"" You should click on only one detector in each network""}",,,,,,
7,,instruction,image-button-response,240444,male,40,English,United States of America,Left,R568289647350gxrw,,,,,,,,
7,,instruction,image-button-response,242892,male,40,English,United States of America,Left,R568289647350gxrw,,,,,,,,
7,,instruction,causal-graph1,248737,male,40,English,United States of America,Left,R568289647350gxrw,,,,,,,,
7,,instruction,causal-graph1,265055,male,40,English,United States of America,Left,R568289647350gxrw,1.0,,,,,,,
7,,instruction,causal-graph1,277528,male,40,English,United States of America,Left,R568289647350gxrw,,,,,,,,
7,,instruction,causal-graph1,292868,male,40,English,United States of America,Left,R568289647350gxrw,1.0,,,,,,,
7,,instruction,image-button-response,298960,male,40,English,United States of America,Left,R568289647350gxrw,,,,,,,,
7,,instruction,survey-multi-choice,346224,male,40,English,United States of America,Left,R568289647350gxrw,,"{""Q0"":"" To decide what caused the activation of the GCM"",""Q1"":"" A detector becomes active if it absorbs a radioactive particle"",""Q2"":"" A GCM becomes active if all of its inputs are active"",""Q3"":"" You should assign a number to every detector in every network""}",,,,,,
7,,instruction,image-button-response,347928,male,40,English,United States of America,Left,R568289647350gxrw,,,,,,,,
7,,instruction,image-button-response,349370,male,40,English,United States of America,Left,R568289647350gxrw,,,,,,,,
7,,instruction,causal-graph1,351318,male,40,English,United States of America,Left,R568289647350gxrw,,,,,,,,
7,,instruction,causal-graph1,378368,male,40,English,United States of America,Left,R568289647350gxrw,1.0,,,,,,,
7,,instruction,causal-graph1,380089,male,40,English,United States of America,Left,R568289647350gxrw,,,,,,,,
7,,instruction,causal-graph1,404473,male,40,English,United States of America,Left,R568289647350gxrw,1.0,,,,,,,
7,,instruction,image-button-response,416312,male,40,English,United States of America,Left,R568289647350gxrw,,,,,,,,
7,,instruction,survey-multi-choice,432707,male,40,English,United States of America,Left,R568289647350gxrw,,"{""Q0"":"" To decide what caused the activation of the GCM"",""Q1"":"" A detector becomes active if it absorbs a radioactive particle"",""Q2"":"" A GCM becomes active if all of its inputs are active"",""Q3"":"" You should click on only one detector in each network""}",,,,,,
7,,instruction,image-button-response,434312,male,40,English,United States of America,Left,R568289647350gxrw,,,,,,,,
7,,instruction,image-button-response,435473,male,40,English,United States of America,Left,R568289647350gxrw,,,,,,,,
7,,instruction,causal-graph1,436375,male,40,English,United States of America,Left,R568289647350gxrw,,,,,,,,
7,,instruction,causal-graph1,440006,male,40,English,United States of America,Left,R568289647350gxrw,1.0,,,,,,,
7,,instruction,causal-graph1,440574,male,40,English,United States of America,Left,R568289647350gxrw,,,,,,,,
7,,instruction,causal-graph1,448827,male,40,English,United States of America,Left,R568289647350gxrw,1.0,,,,,,,
7,,instruction,image-button-response,449722,male,40,English,United States of America,Left,R568289647350gxrw,,,,,,,,
7,,instruction,survey-multi-choice,476650,male,40,English,United States of America,Left,R568289647350gxrw,,"{""Q0"":"" To decide what causes the activation of each detector"",""Q1"":"" A detector becomes active if it receives input from an active detector"",""Q2"":"" A GCM becomes active if at least one of its inputs is active"",""Q3"":"" You should click on only one detector in each network""}",,,,,,
7,,instruction,image-button-response,477721,male,40,English,United States of America,Left,R568289647350gxrw,,,,,,,,
7,,instruction,image-button-response,478497,male,40,English,United States of America,Left,R568289647350gxrw,,,,,,,,
7,,instruction,causal-graph1,479047,male,40,English,United States of America,Left,R568289647350gxrw,,,,,,,,
7,,instruction,causal-graph1,486623,male,40,English,United States of America,Left,R568289647350gxrw,1.0,,,,,,,
7,,instruction,causal-graph1,499288,male,40,English,United States of America,Left,R568289647350gxrw,,,,,,,,
7,,instruction,causal-graph1,512477,male,40,English,United States of America,Left,R568289647350gxrw,1.0,,,,,,,
7,,instruction,image-button-response,513940,male,40,English,United States of America,Left,R568289647350gxrw,,,,,,,,
7,,instruction,survey-multi-choice,544101,male,40,English,United States of America,Left,R568289647350gxrw,,"{""Q0"":"" To decide what caused the activation of the GCM"",""Q1"":"" A detector becomes active if it absorbs a radioactive particle"",""Q2"":"" A GCM becomes active if all of its inputs are active"",""Q3"":"" You should click on only one detector in each network""}",,,,,,
7,,instruction,image-button-response,545348,male,40,English,United States of America,Left,R568289647350gxrw,,,,,,,,
7,,instruction,image-button-response,546578,male,40,English,United States of America,Left,R568289647350gxrw,,,,,,,,
7,,instruction,causal-graph1,548834,male,40,English,United States of America,Left,R568289647350gxrw,,,,,,,,
7,,instruction,causal-graph1,577611,male,40,English,United States of America,Left,R568289647350gxrw,1.0,,,,,,,
7,,instruction,causal-graph1,590052,male,40,English,United States of America,Left,R568289647350gxrw,,,,,,,,
7,,instruction,causal-graph1,605909,male,40,English,United States of America,Left,R568289647350gxrw,1.0,,,,,,,
7,,instruction,image-button-response,618318,male,40,English,United States of America,Left,R568289647350gxrw,,,,,,,,
7,,instruction,survey-multi-choice,660155,male,40,English,United States of America,Left,R568289647350gxrw,,"{""Q0"":"" To decide what caused the activation of the GCM"",""Q1"":"" A detector becomes active if it absorbs a radioactive particle or receives input from an active detector"",""Q2"":"" A GCM becomes active if all of its inputs are active"",""Q3"":"" Some detectors are not clickable""}",,,,,,
7,,instruction,image-button-response,661488,male,40,English,United States of America,Left,R568289647350gxrw,,,,,,,,
7,,instruction,image-button-response,662878,male,40,English,United States of America,Left,R568289647350gxrw,,,,,,,,
7,,instruction,causal-graph1,667009,male,40,English,United States of America,Left,R568289647350gxrw,,,,,,,,
7,,instruction,causal-graph1,736305,male,40,English,United States of America,Left,R568289647350gxrw,1.0,,,,,,,
7,,instruction,causal-graph1,762125,male,40,English,United States of America,Left,R568289647350gxrw,,,,,,,,
7,,instruction,causal-graph1,803031,male,40,English,United States of America,Left,R568289647350gxrw,1.0,,,,,,,
7,,instruction,image-button-response,821436,male,40,English,United States of America,Left,R568289647350gxrw,,,,,,,,
7,,instruction,survey-multi-choice,893195,male,40,English,United States of America,Left,R568289647350gxrw,,"{""Q0"":"" To decide what caused the activation of the GCM"",""Q1"":"" A detector becomes active if it absorbs a radioactive particle"",""Q2"":"" A GCM becomes active if all of its inputs are active"",""Q3"":"" Some detectors are not clickable""}",,,,,,
7,,instruction,image-button-response,894541,male,40,English,United States of America,Left,R568289647350gxrw,,,,,,,,
7,,instruction,image-button-response,895426,male,40,English,United States of America,Left,R568289647350gxrw,,,,,,,,
7,,instruction,causal-graph1,896296,male,40,English,United States of America,Left,R568289647350gxrw,,,,,,,,
7,,instruction,causal-graph1,900427,male,40,English,United States of America,Left,R568289647350gxrw,1.0,,,,,,,
7,,instruction,causal-graph1,901301,male,40,English,United States of America,Left,R568289647350gxrw,,,,,,,,
7,,instruction,causal-graph1,909774,male,40,English,United States of America,Left,R568289647350gxrw,1.0,,,,,,,
7,,instruction,image-button-response,916192,male,40,English,United States of America,Left,R568289647350gxrw,,,,,,,,
7,,instruction,survey-multi-choice,940557,male,40,English,United States of America,Left,R568289647350gxrw,,"{""Q0"":"" To decide what caused the activation of the GCM"",""Q1"":"" A detector becomes active if it absorbs a radioactive particle"",""Q2"":"" A GCM becomes active if all of its inputs are active"",""Q3"":"" You should assign a number to every detector in every network""}",,,,,,
7,,instruction,image-button-response,941824,male,40,English,United States of America,Left,R568289647350gxrw,,,,,,,,
7,,instruction,image-button-response,942762,male,40,English,United States of America,Left,R568289647350gxrw,,,,,,,,
7,,instruction,causal-graph1,943537,male,40,English,United States of America,Left,R568289647350gxrw,,,,,,,,
7,,instruction,causal-graph1,947077,male,40,English,United States of America,Left,R568289647350gxrw,1.0,,,,,,,
7,,instruction,causal-graph1,947771,male,40,English,United States of America,Left,R568289647350gxrw,,,,,,,,
7,,instruction,causal-graph1,964907,male,40,English,United States of America,Left,R568289647350gxrw,1.0,,,,,,,
7,,instruction,image-button-response,966043,male,40,English,United States of America,Left,R568289647350gxrw,,,,,,,,
7,,instruction,survey-multi-choice,979933,male,40,English,United States of America,Left,R568289647350gxrw,,"{""Q0"":"" To decide what caused the activation of the GCM"",""Q1"":"" A detector becomes active if it absorbs a radioactive particle"",""Q2"":"" A GCM becomes active if all of its inputs are active"",""Q3"":"" You should click on only one detector in each network""}",,,,,,
7,,instruction,image-button-response,981238,male,40,English,United States of America,Left,R568289647350gxrw,,,,,,,,
7,,instruction,image-button-response,982166,male,40,English,United States of America,Left,R568289647350gxrw,,,,,,,,
7,,instruction,causal-graph1,983390,male,40,English,United States of America,Left,R568289647350gxrw,,,,,,,,
7,,instruction,causal-graph1,987086,male,40,English,United States of America,Left,R568289647350gxrw,1.0,,,,,,,
7,,instruction,causal-graph1,987754,male,40,English,United States of America,Left,R568289647350gxrw,,,,,,,,
7,,instruction,causal-graph1,996651,male,40,English,United States of America,Left,R568289647350gxrw,1.0,,,,,,,
7,,instruction,image-button-response,1009470,male,40,English,United States of America,Left,R568289647350gxrw,,,,,,,,
7,,instruction,survey-multi-choice,1051938,male,40,English,United States of America,Left,R568289647350gxrw,,"{""Q0"":"" To decide what caused the activation of the GCM"",""Q1"":"" A detector becomes active if it absorbs a radioactive particle or receives input from an active detector"",""Q2"":"" A GCM becomes active if all of its inputs are active"",""Q3"":"" You should click on only one detector in each network""}",,,,,,
7,,instruction,image-button-response,1054845,male,40,English,United States of America,Left,R568289647350gxrw,,,,,,,,
7,11507.730000012087,branch_LTME1,causal-graph1,1090196,male,40,English,United States of America,Left,R568289647350gxrw,2.0,,AND_Gate,Medium,Event,Top,Short,node5
7,15761.579999991229,branch_LTSE3,causal-graph1,1109314,male,40,English,United States of America,Left,R568289647350gxrw,1.0,,AND_Gate,Short,Event,Top,Long,node7
7,15234.179999999467,branch_LBLE3,causal-graph1,1138120,male,40,English,United States of America,Left,R568289647350gxrw,1.0,,AND_Gate,Long,Event,Bottom,Long,node10
7,9481.51000001235,chain_LL,causal-graph1,1149516,male,40,English,United States of America,Left,R568289647350gxrw,1.0,,Chain,Long,,,,node3
7,7641.280000010738,branch_LTLS,causal-graph1,1160883,male,40,English,United States of America,Left,R568289647350gxrw,1.0,,AND_Gate,Long,State,Top,,node10
7,7626.385000010487,chain_LM,causal-graph1,1170157,male,40,English,United States of America,Left,R568289647350gxrw,1.0,,Chain,Medium,,,,node5
7,12317.474999988915,branch_LTLE2,causal-graph1,1184439,male,40,English,United States of America,Left,R568289647350gxrw,1.0,,AND_Gate,Long,Event,Top,Medium,node3
7,10035.440000006927,branch_LBLE1,causal-graph1,1196364,male,40,English,United States of America,Left,R568289647350gxrw,1.0,,AND_Gate,Long,Event,Bottom,Short,node10
7,12012.119999999411,branch_LBSE2,causal-graph1,1211428,male,40,English,United States of America,Left,R568289647350gxrw,1.0,,AND_Gate,Short,Event,Bottom,Medium,node14
7,8255.395000014687,branch_LBSS,causal-graph1,1221794,male,40,English,United States of America,Left,R568289647350gxrw,1.0,,AND_Gate,Short,State,Bottom,,node14
7,10367.939999996452,branch_LBSE1,causal-graph1,1234986,male,40,English,United States of America,Left,R568289647350gxrw,1.0,,AND_Gate,Short,Event,Bottom,Short,node14
7,8180.959999997867,branch_LBMS,causal-graph1,1254212,male,40,English,United States of America,Left,R568289647350gxrw,2.0,,AND_Gate,Medium,State,Bottom,,node5
7,7837.205000018002,chain_LS,causal-graph1,1263570,male,40,English,United States of America,Left,R568289647350gxrw,1.0,,Chain,Short,,,,node7
7,11880.460000014864,branch_LTME2,causal-graph1,1277413,male,40,English,United States of America,Left,R568289647350gxrw,1.0,,AND_Gate,Medium,Event,Top,Medium,node5
7,14956.560000020545,branch_LBME3,causal-graph1,1295437,male,40,English,United States of America,Left,R568289647350gxrw,1.0,,AND_Gate,Medium,Event,Bottom,Long,node12
7,,instruction,image-button-response,1299324,male,40,English,United States of America,Left,R568289647350gxrw,,,,,,,,
7,5890.119999996386,comment,survey-text,1305223,male,40,English,United States of America,Left,R568289647350gxrw,,"{""Q0"":""Fun!""}",,,,,,
8,,instruction,image-button-response,5584,female,45,english,United States of America,Left,R567550297450gxrw,,,,,,,,
8,,instruction,causal-graph1,11275,female,45,english,United States of America,Left,R567550297450gxrw,,,,,,,,
8,,instruction,causal-graph1,30578,female,45,english,United States of America,Left,R567550297450gxrw,2.0,,,,,,,
8,,instruction,causal-graph1,40715,female,45,english,United States of America,Left,R567550297450gxrw,,,,,,,,
8,,instruction,causal-graph1,290044,female,45,english,United States of America,Left,R567550297450gxrw,2.0,,,,,,,
8,,instruction,image-button-response,292677,female,45,english,United States of America,Left,R567550297450gxrw,,,,,,,,
8,,instruction,survey-multi-choice,332947,female,45,english,United States of America,Left,R567550297450gxrw,,"{""Q0"":"" To decide what caused the activation of the GCM"",""Q1"":"" A detector becomes active if it receives input from an active detector"",""Q2"":"" A GCM becomes active if all of its inputs are active"",""Q3"":"" Some detectors are not clickable""}",,,,,,
8,,instruction,image-button-response,336213,female,45,english,United States of America,Left,R567550297450gxrw,,,,,,,,
8,,instruction,image-button-response,338607,female,45,english,United States of America,Left,R567550297450gxrw,,,,,,,,
8,,instruction,causal-graph1,341457,female,45,english,United States of America,Left,R567550297450gxrw,,,,,,,,
8,,instruction,causal-graph1,355486,female,45,english,United States of America,Left,R567550297450gxrw,1.0,,,,,,,
8,,instruction,causal-graph1,362844,female,45,english,United States of America,Left,R567550297450gxrw,,,,,,,,
8,,instruction,causal-graph1,376786,female,45,english,United States of America,Left,R567550297450gxrw,1.0,,,,,,,
8,,instruction,image-button-response,378317,female,45,english,United States of America,Left,R567550297450gxrw,,,,,,,,
8,,instruction,survey-multi-choice,427487,female,45,english,United States of America,Left,R567550297450gxrw,,"{""Q0"":"" To decide what causes the activation of each detector"",""Q1"":"" A detector becomes active if it absorbs a radioactive particle or receives input from an active detector"",""Q2"":"" A GCM becomes active if all of its inputs are active"",""Q3"":"" You should assign a number to every detector in every network""}",,,,,,
8,,instruction,image-button-response,430035,female,45,english,United States of America,Left,R567550297450gxrw,,,,,,,,
8,,instruction,image-button-response,432094,female,45,english,United States of America,Left,R567550297450gxrw,,,,,,,,
8,,instruction,causal-graph1,434133,female,45,english,United States of America,Left,R567550297450gxrw,,,,,,,,
8,,instruction,causal-graph1,440011,female,45,english,United States of America,Left,R567550297450gxrw,1.0,,,,,,,
8,,instruction,causal-graph1,443341,female,45,english,United States of America,Left,R567550297450gxrw,,,,,,,,
8,,instruction,causal-graph1,458082,female,45,english,United States of America,Left,R567550297450gxrw,1.0,,,,,,,
8,,instruction,image-button-response,460467,female,45,english,United States of America,Left,R567550297450gxrw,,,,,,,,
8,,instruction,survey-multi-choice,484251,female,45,english,United States of America,Left,R567550297450gxrw,,"{""Q0"":"" To decide what caused the activation of the GCM"",""Q1"":"" A detector becomes active if it absorbs a radioactive particle or receives input from an active detector"",""Q2"":"" A GCM becomes active if all of its inputs are active"",""Q3"":"" You should assign a number to every detector in every network""}",,,,,,
8,,instruction,image-button-response,486800,female,45,english,United States of America,Left,R567550297450gxrw,,,,,,,,
8,,instruction,image-button-response,501641,female,45,english,United States of America,Left,R567550297450gxrw,,,,,,,,
8,,instruction,causal-graph1,504637,female,45,english,United States of America,Left,R567550297450gxrw,,,,,,,,
8,,instruction,causal-graph1,518493,female,45,english,United States of America,Left,R567550297450gxrw,1.0,,,,,,,
8,,instruction,causal-graph1,520963,female,45,english,United States of America,Left,R567550297450gxrw,,,,,,,,
8,,instruction,causal-graph1,545221,female,45,english,United States of America,Left,R567550297450gxrw,1.0,,,,,,,
8,,instruction,image-button-response,577639,female,45,english,United States of America,Left,R567550297450gxrw,,,,,,,,
8,,instruction,survey-multi-choice,599222,female,45,english,United States of America,Left,R567550297450gxrw,,"{""Q0"":"" To decide what causes the activation of each detector"",""Q1"":"" A detector becomes active if it absorbs a radioactive particle or receives input from an active detector"",""Q2"":"" A GCM becomes active if all of its inputs are active"",""Q3"":"" You should assign a number to every detector in every network""}",,,,,,
8,,instruction,image-button-response,601553,female,45,english,United States of America,Left,R567550297450gxrw,,,,,,,,
8,,instruction,image-button-response,603163,female,45,english,United States of America,Left,R567550297450gxrw,,,,,,,,
8,,instruction,causal-graph1,605689,female,45,english,United States of America,Left,R567550297450gxrw,,,,,,,,
8,,instruction,causal-graph1,616733,female,45,english,United States of America,Left,R567550297450gxrw,1.0,,,,,,,
8,,instruction,causal-graph1,622959,female,45,english,United States of America,Left,R567550297450gxrw,,,,,,,,
8,,instruction,causal-graph1,632440,female,45,english,United States of America,Left,R567550297450gxrw,1.0,,,,,,,
8,,instruction,image-button-response,633615,female,45,english,United States of America,Left,R567550297450gxrw,,,,,,,,
8,,instruction,survey-multi-choice,656787,female,45,english,United States of America,Left,R567550297450gxrw,,"{""Q0"":"" To decide what caused the activation of the GCM"",""Q1"":"" A detector becomes active if it absorbs a radioactive particle or receives input from an active detector"",""Q2"":"" A GCM becomes active if all of its inputs are active"",""Q3"":"" You should assign a number to every detector in every network""}",,,,,,
8,,instruction,image-button-response,658148,female,45,english,United States of America,Left,R567550297450gxrw,,,,,,,,
8,,instruction,image-button-response,659505,female,45,english,United States of America,Left,R567550297450gxrw,,,,,,,,
8,,instruction,causal-graph1,664539,female,45,english,United States of America,Left,R567550297450gxrw,,,,,,,,
8,,instruction,causal-graph1,677915,female,45,english,United States of America,Left,R567550297450gxrw,1.0,,,,,,,
8,,instruction,causal-graph1,678775,female,45,english,United States of America,Left,R567550297450gxrw,,,,,,,,
8,,instruction,causal-graph1,692445,female,45,english,United States of America,Left,R567550297450gxrw,1.0,,,,,,,
8,,instruction,image-button-response,697695,female,45,english,United States of America,Left,R567550297450gxrw,,,,,,,,
8,,instruction,survey-multi-choice,717870,female,45,english,United States of America,Left,R567550297450gxrw,,"{""Q0"":"" To decide what caused the activation of the GCM"",""Q1"":"" A detector becomes active if it absorbs a radioactive particle"",""Q2"":"" A GCM becomes active if all of its inputs are active"",""Q3"":"" You should click on only one detector in each network""}",,,,,,
8,,instruction,image-button-response,719063,female,45,english,United States of America,Left,R567550297450gxrw,,,,,,,,
8,,instruction,image-button-response,787208,female,45,english,United States of America,Left,R567550297450gxrw,,,,,,,,
8,,instruction,causal-graph1,796767,female,45,english,United States of America,Left,R567550297450gxrw,,,,,,,,
8,,instruction,causal-graph1,801003,female,45,english,United States of America,Left,R567550297450gxrw,1.0,,,,,,,
8,,instruction,causal-graph1,801685,female,45,english,United States of America,Left,R567550297450gxrw,,,,,,,,
8,,instruction,causal-graph1,810971,female,45,english,United States of America,Left,R567550297450gxrw,1.0,,,,,,,
8,,instruction,image-button-response,815711,female,45,english,United States of America,Left,R567550297450gxrw,,,,,,,,
8,,instruction,survey-multi-choice,842935,female,45,english,United States of America,Left,R567550297450gxrw,,"{""Q0"":"" To decide what caused the activation of the GCM"",""Q1"":"" A detector becomes active if it absorbs a radioactive particle"",""Q2"":"" A GCM becomes active if all of its inputs are active"",""Q3"":"" You should assign a number to every detector in every network""}",,,,,,
8,,instruction,image-button-response,846527,female,45,english,United States of America,Left,R567550297450gxrw,,,,,,,,
8,,instruction,image-button-response,849177,female,45,english,United States of America,Left,R567550297450gxrw,,,,,,,,
8,,instruction,causal-graph1,852305,female,45,english,United States of America,Left,R567550297450gxrw,,,,,,,,
8,,instruction,causal-graph1,868873,female,45,english,United States of America,Left,R567550297450gxrw,1.0,,,,,,,
8,,instruction,causal-graph1,869779,female,45,english,United States of America,Left,R567550297450gxrw,,,,,,,,
8,,instruction,causal-graph1,879250,female,45,english,United States of America,Left,R567550297450gxrw,1.0,,,,,,,
8,,instruction,image-button-response,888543,female,45,english,United States of America,Left,R567550297450gxrw,,,,,,,,
8,,instruction,survey-multi-choice,913649,female,45,english,United States of America,Left,R567550297450gxrw,,"{""Q0"":"" To decide what caused the activation of the GCM"",""Q1"":"" A detector becomes active if it absorbs a radioactive particle or receives input from an active detector"",""Q2"":"" A GCM becomes active if all of its inputs are active"",""Q3"":"" You should click on only one detector in each network""}",,,,,,
8,,instruction,image-button-response,915771,female,45,english,United States of America,Left,R567550297450gxrw,,,,,,,,
8,16131.190000014612,branch_LTSS,causal-graph1,934622,female,45,english,United States of America,Left,R567550297450gxrw,1.0,,AND_Gate,Short,State,Top,,node7
8,16404.15000001667,branch_LTSE3,causal-graph1,953743,female,45,english,United States of America,Left,R567550297450gxrw,1.0,,AND_Gate,Short,Event,Top,Long,node7
8,16047.729999991132,branch_LTLS,causal-graph1,971975,female,45,english,United States of America,Left,R567550297450gxrw,1.0,,AND_Gate,Long,State,Top,,node10
8,8259.135000000242,chain_LL,causal-graph1,1005493,female,45,english,United States of America,Left,R567550297450gxrw,2.0,,Chain,Long,,,,node3
8,12733.075000025565,branch_LTSE2,causal-graph1,1020439,female,45,english,United States of America,Left,R567550297450gxrw,1.0,,AND_Gate,Short,Event,Top,Medium,node14
8,18651.88499999931,branch_LBLE3,causal-graph1,1060965,female,45,english,United States of America,Left,R567550297450gxrw,2.0,,AND_Gate,Long,Event,Bottom,Long,node10
8,11689.924999984214,branch_LBME2,causal-graph1,1075005,female,45,english,United States of America,Left,R567550297450gxrw,1.0,,AND_Gate,Medium,Event,Bottom,Medium,node12
8,7732.9399999871375,chain_LS,causal-graph1,1084956,female,45,english,United States of America,Left,R567550297450gxrw,1.0,,Chain,Short,,,,node7
8,7827.250000002094,chain_LM,causal-graph1,1094891,female,45,english,United States of America,Left,R567550297450gxrw,1.0,,Chain,Medium,,,,node5
8,10295.754999999192,branch_LTLE1,causal-graph1,1107210,female,45,english,United States of America,Left,R567550297450gxrw,1.0,,AND_Gate,Long,Event,Top,Short,node3
8,9930.649999994785,branch_LTME1,causal-graph1,1119352,female,45,english,United States of America,Left,R567550297450gxrw,1.0,,AND_Gate,Medium,Event,Top,Short,node5
8,12571.254999988016,branch_LBLE2,causal-graph1,1134633,female,45,english,United States of America,Left,R567550297450gxrw,1.0,,AND_Gate,Long,Event,Bottom,Medium,node10
8,9691.779999993742,branch_LTSE1,causal-graph1,1156231,female,45,english,United States of America,Left,R567550297450gxrw,2.0,,AND_Gate,Short,Event,Top,Short,node7
8,8771.335000026738,branch_LTMS,causal-graph1,1167445,female,45,english,United States of America,Left,R567550297450gxrw,1.0,,AND_Gate,Medium,State,Top,,node5
8,15564.890000008745,branch_LTME3,causal-graph1,1187756,female,45,english,United States of America,Left,R567550297450gxrw,1.0,,AND_Gate,Medium,Event,Top,Long,node5
8,,instruction,image-button-response,1191557,female,45,english,United States of America,Left,R567550297450gxrw,,,,,,,,
8,4549.485000025015,comment,survey-text,1196112,female,45,english,United States of America,Left,R567550297450gxrw,,"{""Q0"":""""}",,,,,,
9,,instruction,image-button-response,11616,female,25,English,United States of America,Right,R565953577950gxrw,,,,,,,,
9,,instruction,causal-graph1,20413,female,25,English,United States of America,Right,R565953577950gxrw,,,,,,,,
9,,instruction,causal-graph1,43694,female,25,English,United States of America,Right,R565953577950gxrw,1.0,,,,,,,
9,,instruction,causal-graph1,64008,female,25,English,United States of America,Right,R565953577950gxrw,,,,,,,,
9,,instruction,causal-graph1,118281,female,25,English,United States of America,Right,R565953577950gxrw,1.0,,,,,,,
9,,instruction,image-button-response,130029,female,25,English,United States of America,Right,R565953577950gxrw,,,,,,,,
9,,instruction,survey-multi-choice,165768,female,25,English,United States of America,Right,R565953577950gxrw,,"{""Q0"":"" To decide what caused the activation of the GCM"",""Q1"":"" A detector becomes active if it absorbs a radioactive particle"",""Q2"":"" A GCM becomes active if all of its inputs are active"",""Q3"":"" You should click on only one detector in each network""}",,,,,,
9,,instruction,image-button-response,169870,female,25,English,United States of America,Right,R565953577950gxrw,,,,,,,,
9,,instruction,image-button-response,172442,female,25,English,United States of America,Right,R565953577950gxrw,,,,,,,,
9,,instruction,causal-graph1,175301,female,25,English,United States of America,Right,R565953577950gxrw,,,,,,,,
9,,instruction,causal-graph1,188307,female,25,English,United States of America,Right,R565953577950gxrw,1.0,,,,,,,
9,,instruction,causal-graph1,196935,female,25,English,United States of America,Right,R565953577950gxrw,,,,,,,,
9,,instruction,causal-graph1,216002,female,25,English,United States of America,Right,R565953577950gxrw,1.0,,,,,,,
9,,instruction,image-button-response,227218,female,25,English,United States of America,Right,R565953577950gxrw,,,,,,,,
9,,instruction,survey-multi-choice,273955,female,25,English,United States of America,Right,R565953577950gxrw,,"{""Q0"":"" To decide what caused the activation of the GCM"",""Q1"":"" A detector becomes active if it absorbs a radioactive particle or receives input from an active detector"",""Q2"":"" A GCM becomes active if all of its inputs are active"",""Q3"":"" You should click on only one detector in each network""}",,,,,,
9,,instruction,image-button-response,277084,female,25,English,United States of America,Right,R565953577950gxrw,,,,,,,,
9,23790.924999979325,branch_RTSE2,causal-graph1,306192,female,25,English,United States of America,Right,R565953577950gxrw,1.0,,AND_Gate,Short,Event,Top,Medium,node2
9,14319.579999893904,branch_RTLE1,causal-graph1,323676,female,25,English,United States of America,Right,R565953577950gxrw,1.0,,AND_Gate,Long,Event,Top,Short,node1
9,10992.100000032224,branch_RBSE1,causal-graph1,336833,female,25,English,United States of America,Right,R565953577950gxrw,1.0,,AND_Gate,Short,Event,Bottom,Short,node12
9,10296.000000089409,branch_RTLS,causal-graph1,350148,female,25,English,United States of America,Right,R565953577950gxrw,1.0,,AND_Gate,Long,State,Top,,node1
9,15108.329999959096,branch_RBME3,causal-graph1,371309,female,25,English,United States of America,Right,R565953577950gxrw,1.0,,AND_Gate,Medium,Event,Bottom,Long,node9
9,14078.46500002779,branch_RBLE2,causal-graph1,388173,female,25,English,United States of America,Right,R565953577950gxrw,1.0,,AND_Gate,Long,Event,Bottom,Medium,node8
9,16417.574999970384,branch_RBSE3,causal-graph1,411166,female,25,English,United States of America,Right,R565953577950gxrw,1.0,,AND_Gate,Short,Event,Bottom,Long,node12
9,8735.695000039414,chain_RM,causal-graph1,422604,female,25,English,United States of America,Right,R565953577950gxrw,1.0,,Chain,Medium,,,,node2
9,15392.894999939017,branch_RBLE3,causal-graph1,441693,female,25,English,United States of America,Right,R565953577950gxrw,1.0,,AND_Gate,Long,Event,Bottom,Long,node9
9,8903.144999989308,chain_RL,causal-graph1,455293,female,25,English,United States of America,Right,R565953577950gxrw,1.0,,Chain,Long,,,,node2
9,12862.160000018777,branch_RBME2,causal-graph1,470107,female,25,English,United States of America,Right,R565953577950gxrw,1.0,,AND_Gate,Medium,Event,Bottom,Medium,node10
9,23132.06999993417,branch_RTME1,causal-graph1,500208,female,25,English,United States of America,Right,R565953577950gxrw,1.0,,AND_Gate,Medium,Event,Top,Short,node11
9,9267.570000025444,chain_RS,causal-graph1,519459,female,25,English,United States of America,Right,R565953577950gxrw,1.0,,Chain,Short,,,,node5
9,9718.545000068843,branch_RTSS,causal-graph1,539000,female,25,English,United States of America,Right,R565953577950gxrw,1.0,,AND_Gate,Short,State,Top,,node6
9,10484.50999998022,branch_RBMS,causal-graph1,560601,female,25,English,United States of America,Right,R565953577950gxrw,1.0,,AND_Gate,Medium,State,Bottom,,node11
9,,instruction,image-button-response,565139,female,25,English,United States of America,Right,R565953577950gxrw,,,,,,,,
9,30405.615000054237,comment,survey-text,595561,female,25,English,United States of America,Right,R565953577950gxrw,,"{""Q0"":""The study was properly structured.Thanks for making me a part of it.""}",,,,,,
10,,instruction,image-button-response,3458,male,34,English,United States of America,Left,R566689907740gxrw,,,,,,,,
10,,instruction,causal-graph1,6519,male,34,English,United States of America,Left,R566689907740gxrw,,,,,,,,
10,,instruction,causal-graph1,19387,male,34,English,United States of America,Left,R566689907740gxrw,1.0,,,,,,,
10,,instruction,causal-graph1,24598,male,34,English,United States of America,Left,R566689907740gxrw,,,,,,,,
10,,instruction,causal-graph1,43200,male,34,English,United States of America,Left,R566689907740gxrw,1.0,,,,,,,
10,,instruction,image-button-response,49271,male,34,English,United States of America,Left,R566689907740gxrw,,,,,,,,
10,,instruction,survey-multi-choice,75590,male,34,English,United States of America,Left,R566689907740gxrw,,"{""Q0"":"" To decide what caused the activation of the GCM"",""Q1"":"" A detector becomes active if it absorbs a radioactive particle"",""Q2"":"" A GCM becomes active if all of its inputs are active"",""Q3"":"" You should click on only one detector in each network""}",,,,,,
10,,instruction,image-button-response,77967,male,34,English,United States of America,Left,R566689907740gxrw,,,,,,,,
10,,instruction,image-button-response,79164,male,34,English,United States of America,Left,R566689907740gxrw,,,,,,,,
10,,instruction,causal-graph1,81672,male,34,English,United States of America,Left,R566689907740gxrw,,,,,,,,
10,,instruction,causal-graph1,89595,male,34,English,United States of America,Left,R566689907740gxrw,1.0,,,,,,,
10,,instruction,causal-graph1,94432,male,34,English,United States of America,Left,R566689907740gxrw,,,,,,,,
10,,instruction,causal-graph1,106881,male,34,English,United States of America,Left,R566689907740gxrw,1.0,,,,,,,
10,,instruction,image-button-response,109861,male,34,English,United States of America,Left,R566689907740gxrw,,,,,,,,
10,,instruction,survey-multi-choice,132524,male,34,English,United States of America,Left,R566689907740gxrw,,"{""Q0"":"" To decide what caused the activation of the GCM"",""Q1"":"" A detector becomes active if it absorbs a radioactive particle or receives input from an active detector"",""Q2"":"" A GCM becomes active if all of its inputs are active"",""Q3"":"" You should click on only one detector in each network""}",,,,,,
10,,instruction,image-button-response,133855,male,34,English,United States of America,Left,R566689907740gxrw,,,,,,,,
10,17189.264999993607,branch_LBLE1,causal-graph1,152836,male,34,English,United States of America,Left,R566689907740gxrw,1.0,,AND_Gate,Long,Event,Bottom,Short,node7
10,10416.669999976877,branch_LTSS,causal-graph1,165451,male,34,English,United States of America,Left,R566689907740gxrw,1.0,,AND_Gate,Short,State,Top,,node14
10,11835.855000012087,branch_LTMS,causal-graph1,178894,male,34,English,United States of America,Left,R566689907740gxrw,1.0,,AND_Gate,Medium,State,Top,,node14
10,14605.244999984283,branch_LBLE3,causal-graph1,194903,male,34,English,United States of America,Left,R566689907740gxrw,1.0,,AND_Gate,Long,Event,Bottom,Long,node7
10,9000.47500000801,chain_LS,causal-graph1,205692,male,34,English,United States of America,Left,R566689907740gxrw,1.0,,Chain,Short,,,,node7
10,9039.24499999266,branch_LBLS,causal-graph1,216440,male,34,English,United States of America,Left,R566689907740gxrw,1.0,,AND_Gate,Long,State,Bottom,,node7
10,10181.585000013001,branch_LTSE1,causal-graph1,227571,male,34,English,United States of America,Left,R566689907740gxrw,1.0,,AND_Gate,Short,Event,Top,Short,node14
10,10141.789999994216,branch_LTME1,causal-graph1,239631,male,34,English,United States of America,Left,R566689907740gxrw,1.0,,AND_Gate,Medium,Event,Top,Short,node14
10,12259.140000009209,branch_LBLE2,causal-graph1,254252,male,34,English,United States of America,Left,R566689907740gxrw,1.0,,AND_Gate,Long,Event,Bottom,Medium,node7
10,13162.62000001734,branch_LTME2,causal-graph1,269165,male,34,English,United States of America,Left,R566689907740gxrw,1.0,,AND_Gate,Medium,Event,Top,Medium,node14
10,11711.509999993723,branch_LBSE2,causal-graph1,282729,male,34,English,United States of America,Left,R566689907740gxrw,1.0,,AND_Gate,Short,Event,Bottom,Medium,node7
10,18751.21000001673,branch_LBSE3,causal-graph1,312405,male,34,English,United States of America,Left,R566689907740gxrw,1.0,,AND_Gate,Short,Event,Bottom,Long,node7
10,9044.854999985546,chain_LL,causal-graph1,324151,male,34,English,United States of America,Left,R566689907740gxrw,1.0,,Chain,Long,,,,node7
10,8601.905000017723,chain_LM,causal-graph1,334103,male,34,English,United States of America,Left,R566689907740gxrw,1.0,,Chain,Medium,,,,node7
10,14341.749999992317,branch_LTME3,causal-graph1,351259,male,34,English,United States of America,Left,R566689907740gxrw,1.0,,AND_Gate,Medium,Event,Top,Long,node14
10,,instruction,image-button-response,353038,male,34,English,United States of America,Left,R566689907740gxrw,,,,,,,,
10,3757.985000003828,comment,survey-text,356833,male,34,English,United States of America,Left,R566689907740gxrw,,"{""Q0"":""""}",,,,,,
11,,instruction,image-button-response,8228,male,44,English,United States of America,Right,R567618177640gxrw,,,,,,,,
11,,instruction,causal-graph1,18828,male,44,English,United States of America,Right,R567618177640gxrw,,,,,,,,
11,,instruction,causal-graph1,38356,male,44,English,United States of America,Right,R567618177640gxrw,1.0,,,,,,,
11,,instruction,causal-graph1,50323,male,44,English,United States of America,Right,R567618177640gxrw,,,,,,,,
11,,instruction,causal-graph1,69235,male,44,English,United States of America,Right,R567618177640gxrw,1.0,,,,,,,
11,,instruction,image-button-response,77075,male,44,English,United States of America,Right,R567618177640gxrw,,,,,,,,
11,,instruction,survey-multi-choice,117348,male,44,English,United States of America,Right,R567618177640gxrw,,"{""Q0"":"" To decide what caused the activation of the GCM"",""Q1"":"" A detector becomes active if it receives input from an active detector"",""Q2"":"" A GCM becomes active if all of its inputs are active"",""Q3"":"" You should click on only one detector in each network""}",,,,,,
11,,instruction,image-button-response,120435,male,44,English,United States of America,Right,R567618177640gxrw,,,,,,,,
11,,instruction,image-button-response,122003,male,44,English,United States of America,Right,R567618177640gxrw,,,,,,,,
11,,instruction,causal-graph1,123795,male,44,English,United States of America,Right,R567618177640gxrw,,,,,,,,
11,,instruction,causal-graph1,130035,male,44,English,United States of America,Right,R567618177640gxrw,1.0,,,,,,,
11,,instruction,causal-graph1,130643,male,44,English,United States of America,Right,R567618177640gxrw,,,,,,,,
11,,instruction,causal-graph1,139195,male,44,English,United States of America,Right,R567618177640gxrw,1.0,,,,,,,
11,,instruction,image-button-response,140419,male,44,English,United States of America,Right,R567618177640gxrw,,,,,,,,
11,,instruction,survey-multi-choice,156348,male,44,English,United States of America,Right,R567618177640gxrw,,"{""Q0"":"" To decide what caused the activation of the GCM"",""Q1"":"" A detector becomes active if it absorbs a radioactive particle"",""Q2"":"" A GCM becomes active if all of its inputs are active"",""Q3"":"" You should click on only one detector in each network""}",,,,,,
11,,instruction,image-button-response,158131,male,44,English,United States of America,Right,R567618177640gxrw,,,,,,,,
11,,instruction,image-button-response,160172,male,44,English,United States of America,Right,R567618177640gxrw,,,,,,,,
11,,instruction,causal-graph1,162627,male,44,English,United States of America,Right,R567618177640gxrw,,,,,,,,
11,,instruction,causal-graph1,180820,male,44,English,United States of America,Right,R567618177640gxrw,1.0,,,,,,,
11,,instruction,causal-graph1,186196,male,44,English,United States of America,Right,R567618177640gxrw,,,,,,,,
11,,instruction,causal-graph1,199148,male,44,English,United States of America,Right,R567618177640gxrw,1.0,,,,,,,
11,,instruction,image-button-response,200812,male,44,English,United States of America,Right,R567618177640gxrw,,,,,,,,
11,,instruction,survey-multi-choice,217892,male,44,English,United States of America,Right,R567618177640gxrw,,"{""Q0"":"" To decide what caused the activation of the GCM"",""Q1"":"" A detector becomes active if it absorbs a radioactive particle or receives input from an active detector"",""Q2"":"" A GCM becomes active if all of its inputs are active"",""Q3"":"" You should click on only one detector in each network""}",,,,,,
11,,instruction,image-button-response,219667,male,44,English,United States of America,Right,R567618177640gxrw,,,,,,,,
11,10249.254999915138,chain_RM,causal-graph1,233155,male,44,English,United States of America,Right,R567618177640gxrw,1.0,,Chain,Medium,,,,node5
11,11322.834999999033,branch_RTLE1,causal-graph1,246900,male,44,English,United States of America,Right,R567618177640gxrw,1.0,,AND_Gate,Long,Event,Top,Short,node10
11,7706.245000008494,branch_RBSS,causal-graph1,257812,male,44,English,United States of America,Right,R567618177640gxrw,1.0,,AND_Gate,Short,State,Bottom,,node7
11,13603.285000193864,branch_RTLE2,causal-graph1,273732,male,44,English,United States of America,Right,R567618177640gxrw,1.0,,AND_Gate,Long,Event,Top,Medium,node10
11,8643.755000084639,chain_RS,causal-graph1,284475,male,44,English,United States of America,Right,R567618177640gxrw,1.0,,Chain,Short,,,,node7
11,8498.965000035241,branch_RTLS,causal-graph1,297220,male,44,English,United States of America,Right,R567618177640gxrw,1.0,,AND_Gate,Long,State,Top,,node10
11,8892.070000059903,branch_RBMS,causal-graph1,307916,male,44,English,United States of America,Right,R567618177640gxrw,1.0,,AND_Gate,Medium,State,Bottom,,node5
11,10306.365000084044,branch_RBSE1,causal-graph1,319883,male,44,English,United States of America,Right,R567618177640gxrw,1.0,,AND_Gate,Short,Event,Bottom,Short,node7
11,15555.320000043139,branch_RTLE3,causal-graph1,338564,male,44,English,United States of America,Right,R567618177640gxrw,1.0,,AND_Gate,Long,Event,Top,Long,node10
11,12683.070000028238,branch_RBSE2,causal-graph1,352876,male,44,English,United States of America,Right,R567618177640gxrw,1.0,,AND_Gate,Short,Event,Bottom,Medium,node7
11,14216.985000064597,branch_RTSE3,causal-graph1,369219,male,44,English,United States of America,Right,R567618177640gxrw,1.0,,AND_Gate,Short,Event,Top,Long,node14
11,13043.950000079349,branch_RTME2,causal-graph1,384596,male,44,English,United States of America,Right,R567618177640gxrw,1.0,,AND_Gate,Medium,Event,Top,Medium,node12
11,10041.889999993144,branch_RTME1,causal-graph1,396235,male,44,English,United States of America,Right,R567618177640gxrw,1.0,,AND_Gate,Medium,Event,Top,Short,node12
11,14866.769999964165,branch_RTME3,causal-graph1,412915,male,44,English,United States of America,Right,R567618177640gxrw,1.0,,AND_Gate,Medium,Event,Top,Long,node12
11,8227.985000004992,chain_RL,causal-graph1,422867,male,44,English,United States of America,Right,R567618177640gxrw,1.0,,Chain,Long,,,,node3
11,,instruction,image-button-response,425812,male,44,English,United States of America,Right,R567618177640gxrw,,,,,,,,
11,10505.16499998048,comment,survey-text,436323,male,44,English,United States of America,Right,R567618177640gxrw,,"{""Q0"":""none""}",,,,,,
12,,instruction,image-button-response,6227,male,28,English ,United States of America,Left,R562059567770gxrw,,,,,,,,
12,,instruction,causal-graph1,11450,male,28,English ,United States of America,Left,R562059567770gxrw,,,,,,,,
12,,instruction,causal-graph1,39193,male,28,English ,United States of America,Left,R562059567770gxrw,2.0,,,,,,,
12,,instruction,causal-graph1,41667,male,28,English ,United States of America,Left,R562059567770gxrw,,,,,,,,
12,,instruction,causal-graph1,56954,male,28,English ,United States of America,Left,R562059567770gxrw,1.0,,,,,,,
12,,instruction,image-button-response,62678,male,28,English ,United States of America,Left,R562059567770gxrw,,,,,,,,
12,,instruction,survey-multi-choice,93381,male,28,English ,United States of America,Left,R562059567770gxrw,,"{""Q0"":"" To decide what causes the activation of each detector"",""Q1"":"" A detector becomes active if it absorbs a radioactive particle"",""Q2"":"" A GCM becomes active if at least one of its inputs is active"",""Q3"":"" You should click on only one detector in each network""}",,,,,,
12,,instruction,image-button-response,96969,male,28,English ,United States of America,Left,R562059567770gxrw,,,,,,,,
12,,instruction,image-button-response,98627,male,28,English ,United States of America,Left,R562059567770gxrw,,,,,,,,
12,,instruction,causal-graph1,104153,male,28,English ,United States of America,Left,R562059567770gxrw,,,,,,,,
12,,instruction,causal-graph1,118098,male,28,English ,United States of America,Left,R562059567770gxrw,1.0,,,,,,,
12,,instruction,causal-graph1,123276,male,28,English ,United States of America,Left,R562059567770gxrw,,,,,,,,
12,,instruction,causal-graph1,137861,male,28,English ,United States of America,Left,R562059567770gxrw,1.0,,,,,,,
12,,instruction,image-button-response,142142,male,28,English ,United States of America,Left,R562059567770gxrw,,,,,,,,
12,,instruction,survey-multi-choice,260037,male,28,English ,United States of America,Left,R562059567770gxrw,,"{""Q0"":"" To decide what caused the activation of the GCM"",""Q1"":"" A detector becomes active if it absorbs a radioactive particle"",""Q2"":"" A GCM becomes active if all of its inputs are active"",""Q3"":"" You should click on only one detector in each network""}",,,,,,
12,,instruction,image-button-response,262035,male,28,English ,United States of America,Left,R562059567770gxrw,,,,,,,,
12,,instruction,image-button-response,264341,male,28,English ,United States of America,Left,R562059567770gxrw,,,,,,,,
12,,instruction,causal-graph1,265743,male,28,English ,United States of America,Left,R562059567770gxrw,,,,,,,,
12,,instruction,causal-graph1,270749,male,28,English ,United States of America,Left,R562059567770gxrw,1.0,,,,,,,
12,,instruction,causal-graph1,271885,male,28,English ,United States of America,Left,R562059567770gxrw,,,,,,,,
12,,instruction,causal-graph1,282963,male,28,English ,United States of America,Left,R562059567770gxrw,1.0,,,,,,,
12,,instruction,image-button-response,284603,male,28,English ,United States of America,Left,R562059567770gxrw,,,,,,,,
12,,instruction,survey-multi-choice,301929,male,28,English ,United States of America,Left,R562059567770gxrw,,"{""Q0"":"" To decide what caused the activation of the GCM"",""Q1"":"" A detector becomes active if it absorbs a radioactive particle"",""Q2"":"" A GCM becomes active if all of its inputs are active"",""Q3"":"" You should assign a number to every detector in every network""}",,,,,,
12,,instruction,image-button-response,303690,male,28,English ,United States of America,Left,R562059567770gxrw,,,,,,,,
12,,instruction,image-button-response,304957,male,28,English ,United States of America,Left,R562059567770gxrw,,,,,,,,
12,,instruction,causal-graph1,308058,male,28,English ,United States of America,Left,R562059567770gxrw,,,,,,,,
12,,instruction,causal-graph1,313642,male,28,English ,United States of America,Left,R562059567770gxrw,1.0,,,,,,,
12,,instruction,causal-graph1,314601,male,28,English ,United States of America,Left,R562059567770gxrw,,,,,,,,
12,,instruction,causal-graph1,324045,male,28,English ,United States of America,Left,R562059567770gxrw,1.0,,,,,,,
12,,instruction,image-button-response,325419,male,28,English ,United States of America,Left,R562059567770gxrw,,,,,,,,
12,,instruction,survey-multi-choice,343070,male,28,English ,United States of America,Left,R562059567770gxrw,,"{""Q0"":"" To decide what caused the activation of the GCM"",""Q1"":"" A detector becomes active if it absorbs a radioactive particle"",""Q2"":"" A GCM becomes active if all of its inputs are active"",""Q3"":"" Some detectors are not clickable""}",,,,,,
12,,instruction,image-button-response,345223,male,28,English ,United States of America,Left,R562059567770gxrw,,,,,,,,
12,,instruction,image-button-response,346648,male,28,English ,United States of America,Left,R562059567770gxrw,,,,,,,,
12,,instruction,causal-graph1,347751,male,28,English ,United States of America,Left,R562059567770gxrw,,,,,,,,
12,,instruction,causal-graph1,354059,male,28,English ,United States of America,Left,R562059567770gxrw,1.0,,,,,,,
12,,instruction,causal-graph1,354974,male,28,English ,United States of America,Left,R562059567770gxrw,,,,,,,,
12,,instruction,causal-graph1,365620,male,28,English ,United States of America,Left,R562059567770gxrw,1.0,,,,,,,
12,,instruction,image-button-response,367486,male,28,English ,United States of America,Left,R562059567770gxrw,,,,,,,,
12,,instruction,survey-multi-choice,395728,male,28,English ,United States of America,Left,R562059567770gxrw,,"{""Q0"":"" To decide what caused the activation of the GCM"",""Q1"":"" A detector becomes active if it absorbs a radioactive particle or receives input from an active detector"",""Q2"":"" A GCM becomes active if all of its inputs are active"",""Q3"":"" You should click on only one detector in each network""}",,,,,,
12,,instruction,image-button-response,397932,male,28,English ,United States of America,Left,R562059567770gxrw,,,,,,,,
12,15383.000000000058,chain_LL,causal-graph1,437289,male,28,English ,United States of America,Left,R562059567770gxrw,2.0,,Chain,Long,,,,node3
12,16592.00000000006,branch_LBME2,causal-graph1,458228,male,28,English ,United States of America,Left,R562059567770gxrw,1.0,,AND_Gate,Medium,Event,Bottom,Medium,node12
12,16805.0,branch_LBLE2,causal-graph1,485678,male,28,English ,United States of America,Left,R562059567770gxrw,1.0,,AND_Gate,Long,Event,Bottom,Medium,node10
12,9624.000000000058,branch_LTSS,causal-graph1,499542,male,28,English ,United States of America,Left,R562059567770gxrw,1.0,,AND_Gate,Short,State,Top,,node7
12,11487.0,branch_LBLE1,causal-graph1,514168,male,28,English ,United States of America,Left,R562059567770gxrw,1.0,,AND_Gate,Long,Event,Bottom,Short,node5
12,17423.0,branch_LTSE1,causal-graph1,533839,male,28,English ,United States of America,Left,R562059567770gxrw,1.0,,AND_Gate,Short,Event,Top,Short,node7
12,16867.0,branch_LBSE3,causal-graph1,554126,male,28,English ,United States of America,Left,R562059567770gxrw,1.0,,AND_Gate,Short,Event,Bottom,Long,node14
12,19032.00000000012,branch_LTLE3,causal-graph1,577823,male,28,English ,United States of America,Left,R562059567770gxrw,1.0,,AND_Gate,Long,Event,Top,Long,node3
12,11866.0,branch_LTMS,causal-graph1,592022,male,28,English ,United States of America,Left,R562059567770gxrw,1.0,,AND_Gate,Medium,State,Top,,node5
12,8064.999999999884,branch_LTLS,causal-graph1,606406,male,28,English ,United States of America,Left,R562059567770gxrw,1.0,,AND_Gate,Long,State,Top,,node3
12,9637.0,chain_LS,causal-graph1,618044,male,28,English ,United States of America,Left,R562059567770gxrw,1.0,,Chain,Short,,,,node7
12,14846.0,branch_LBME3,causal-graph1,637217,male,28,English ,United States of America,Left,R562059567770gxrw,1.0,,AND_Gate,Medium,Event,Bottom,Long,node5
12,12235.000000000116,branch_LBSE2,causal-graph1,652576,male,28,English ,United States of America,Left,R562059567770gxrw,1.0,,AND_Gate,Short,Event,Bottom,Medium,node14
12,8970.0,chain_LM,causal-graph1,663977,male,28,English ,United States of America,Left,R562059567770gxrw,1.0,,Chain,Medium,,,,node5
12,13606.000000000116,branch_LBME1,causal-graph1,690165,male,28,English ,United States of America,Left,R562059567770gxrw,1.0,,AND_Gate,Medium,Event,Bottom,Short,node5
12,,instruction,image-button-response,693162,male,28,English ,United States of America,Left,R562059567770gxrw,,,,,,,,
12,11706.0,comment,survey-text,704883,male,28,English ,United States of America,Left,R562059567770gxrw,,"{""Q0"":""No technical troubles ""}",,,,,,
13,,instruction,image-button-response,76272,male,34,English,United States of America,Right,R561607047440gxrw,,,,,,,,
13,,instruction,causal-graph1,78995,male,34,English,United States of America,Right,R561607047440gxrw,,,,,,,,
13,,instruction,causal-graph1,90712,male,34,English,United States of America,Right,R561607047440gxrw,1.0,,,,,,,
13,,instruction,causal-graph1,94730,male,34,English,United States of America,Right,R561607047440gxrw,,,,,,,,
13,,instruction,causal-graph1,106611,male,34,English,United States of America,Right,R561607047440gxrw,1.0,,,,,,,
13,,instruction,image-button-response,111639,male,34,English,United States of America,Right,R561607047440gxrw,,,,,,,,
13,,instruction,survey-multi-choice,134508,male,34,English,United States of America,Right,R561607047440gxrw,,"{""Q0"":"" To decide what caused the activation of the GCM"",""Q1"":"" A detector becomes active if it absorbs a radioactive particle or receives input from an active detector"",""Q2"":"" A GCM becomes active if all of its inputs are active"",""Q3"":"" You should click on only one detector in each network""}",,,,,,
13,,instruction,image-button-response,135773,male,34,English,United States of America,Right,R561607047440gxrw,,,,,,,,
13,9075.305000005756,branch_RTLS,causal-graph1,146470,male,34,English,United States of America,Right,R561607047440gxrw,1.0,,AND_Gate,Long,State,Top,,node10
13,9927.819999982603,branch_RBME1,causal-graph1,157728,male,34,English,United States of America,Right,R561607047440gxrw,1.0,,AND_Gate,Medium,Event,Bottom,Short,node5
13,13886.034999974072,branch_RBSE3,causal-graph1,175465,male,34,English,United States of America,Right,R561607047440gxrw,1.0,,AND_Gate,Short,Event,Bottom,Long,node7
13,11625.600000028498,branch_RTME2,causal-graph1,188374,male,34,English,United States of America,Right,R561607047440gxrw,1.0,,AND_Gate,Medium,Event,Top,Medium,node12
13,7513.099999981932,branch_RTMS,causal-graph1,207626,male,34,English,United States of America,Right,R561607047440gxrw,1.0,,AND_Gate,Medium,State,Top,,node12
13,12324.689999979455,branch_RBSE1,causal-graph1,232554,male,34,English,United States of America,Right,R561607047440gxrw,2.0,,AND_Gate,Short,Event,Bottom,Short,node7
13,13689.019999990704,branch_RTME3,causal-graph1,247411,male,34,English,United States of America,Right,R561607047440gxrw,1.0,,AND_Gate,Medium,Event,Top,Long,node12
13,18011.639999982435,chain_RM,causal-graph1,274487,male,34,English,United States of America,Right,R561607047440gxrw,1.0,,Chain,Medium,,,,node5
13,11435.170000011567,branch_RBSE2,causal-graph1,287372,male,34,English,United States of America,Right,R561607047440gxrw,1.0,,AND_Gate,Short,Event,Bottom,Medium,node7
13,8073.900000017603,chain_RL,causal-graph1,296880,male,34,English,United States of America,Right,R561607047440gxrw,1.0,,Chain,Long,,,,node3
13,8420.88499997044,branch_RTSS,causal-graph1,318605,male,34,English,United States of America,Right,R561607047440gxrw,1.0,,AND_Gate,Short,State,Top,,node14
13,12460.865000030028,branch_RBLE2,causal-graph1,332793,male,34,English,United States of America,Right,R561607047440gxrw,1.0,,AND_Gate,Long,Event,Bottom,Medium,node3
13,14360.129999986384,branch_RTLE3,causal-graph1,350825,male,34,English,United States of America,Right,R561607047440gxrw,1.0,,AND_Gate,Long,Event,Top,Long,node10
13,7207.140000013169,chain_RS,causal-graph1,359155,male,34,English,United States of America,Right,R561607047440gxrw,1.0,,Chain,Short,,,,node7
13,9878.774999990128,branch_RTLE1,causal-graph1,379624,male,34,English,United States of America,Right,R561607047440gxrw,1.0,,AND_Gate,Long,Event,Top,Short,node10
13,,instruction,image-button-response,381506,male,34,English,United States of America,Right,R561607047440gxrw,,,,,,,,
13,1156.8900000420401,comment,survey-text,382666,male,34,English,United States of America,Right,R561607047440gxrw,,"{""Q0"":""""}",,,,,,
14,,instruction,image-button-response,14408,male,31,marathi,United States of America,Right,R561917327720gxrw,,,,,,,,
14,,instruction,causal-graph1,31353,male,31,marathi,United States of America,Right,R561917327720gxrw,,,,,,,,
14,,instruction,causal-graph1,80379,male,31,marathi,United States of America,Right,R561917327720gxrw,2.0,,,,,,,
14,,instruction,causal-graph1,107562,male,31,marathi,United States of America,Right,R561917327720gxrw,,,,,,,,
14,,instruction,causal-graph1,134413,male,31,marathi,United States of America,Right,R561917327720gxrw,1.0,,,,,,,
14,,instruction,image-button-response,155538,male,31,marathi,United States of America,Right,R561917327720gxrw,,,,,,,,
14,,instruction,survey-multi-choice,241507,male,31,marathi,United States of America,Right,R561917327720gxrw,,"{""Q0"":"" To decide what caused the activation of the GCM"",""Q1"":"" A detector becomes active if it absorbs a radioactive particle"",""Q2"":"" A GCM becomes active if all of its inputs are active"",""Q3"":"" You should click on only one detector in each network""}",,,,,,
14,,instruction,image-button-response,248578,male,31,marathi,United States of America,Right,R561917327720gxrw,,,,,,,,
14,,instruction,image-button-response,250117,male,31,marathi,United States of America,Right,R561917327720gxrw,,,,,,,,
14,,instruction,causal-graph1,252438,male,31,marathi,United States of America,Right,R561917327720gxrw,,,,,,,,
14,,instruction,causal-graph1,261108,male,31,marathi,United States of America,Right,R561917327720gxrw,1.0,,,,,,,
14,,instruction,causal-graph1,269258,male,31,marathi,United States of America,Right,R561917327720gxrw,,,,,,,,
14,,instruction,causal-graph1,283697,male,31,marathi,United States of America,Right,R561917327720gxrw,1.0,,,,,,,
14,,instruction,image-button-response,296059,male,31,marathi,United States of America,Right,R561917327720gxrw,,,,,,,,
14,,instruction,survey-multi-choice,342086,male,31,marathi,United States of America,Right,R561917327720gxrw,,"{""Q0"":"" To decide what caused the activation of the GCM"",""Q1"":"" A detector becomes active if it absorbs a radioactive particle"",""Q2"":"" A GCM becomes active if all of its inputs are active"",""Q3"":"" You should click on only one detector in each network""}",,,,,,
14,,instruction,image-button-response,346781,male,31,marathi,United States of America,Right,R561917327720gxrw,,,,,,,,
14,,instruction,image-button-response,349986,male,31,marathi,United States of America,Right,R561917327720gxrw,,,,,,,,
14,,instruction,causal-graph1,352616,male,31,marathi,United States of America,Right,R561917327720gxrw,,,,,,,,
14,,instruction,causal-graph1,362385,male,31,marathi,United States of America,Right,R561917327720gxrw,1.0,,,,,,,
14,,instruction,causal-graph1,371173,male,31,marathi,United States of America,Right,R561917327720gxrw,,,,,,,,
14,,instruction,causal-graph1,385167,male,31,marathi,United States of America,Right,R561917327720gxrw,1.0,,,,,,,
14,,instruction,image-button-response,413860,male,31,marathi,United States of America,Right,R561917327720gxrw,,,,,,,,
14,,instruction,survey-multi-choice,450580,male,31,marathi,United States of America,Right,R561917327720gxrw,,"{""Q0"":"" To decide what caused the activation of the GCM"",""Q1"":"" A detector becomes active if it absorbs a radioactive particle or receives input from an active detector"",""Q2"":"" A GCM becomes active if all of its inputs are active"",""Q3"":"" You should click on only one detector in each network""}",,,,,,
14,,instruction,image-button-response,452845,male,31,marathi,United States of America,Right,R561917327720gxrw,,,,,,,,
14,25786.819999979347,branch_RTSE3,causal-graph1,481605,male,31,marathi,United States of America,Right,R561917327720gxrw,1.0,,AND_Gate,Short,Event,Top,Long,node14
