subject_id,rt,stimulus,button_pressed,trial_type,trial_index,time_elapsed,internal_node_id,gender,age,language,country,sampling,turkcode,status,nb_of_run,responses,question_order,stim_type,length,state_OR_event,branch_first,time_interval,node_selected
1,16775.129999965433,img/inst_1.png,0.0,image-button-response,0,16783,0.0-0.0-0.0,male,29,English,United States of America,Right,R568084887600gxrw,,,,,,,,,,
1,,img/inst_2R.png,,causal-graph1,1,30108,0.0-0.0-1.0,male,29,English,United States of America,Right,R568084887600gxrw,inactive,,,,,,,,,
1,,"img/inst_3R.png,img/inst_3R.gif",,causal-graph1,2,139781,0.0-0.0-2.0,male,29,English,United States of America,Right,R568084887600gxrw,inactive,1.0,,,,,,,,
1,,img/inst_4R.png,,causal-graph1,3,142755,0.0-0.0-3.0,male,29,English,United States of America,Right,R568084887600gxrw,inactive,,,,,,,,,
1,,"img/inst_5R.png,img/inst_5RB.gif",,causal-graph1,4,330315,0.0-0.0-4.0,male,29,English,United States of America,Right,R568084887600gxrw,inactive,2.0,,,,,,,,
1,8295.280000194907,img/inst_6.png,0.0,image-button-response,5,338613,0.0-0.0-5.0,male,29,English,United States of America,Right,R568084887600gxrw,,,,,,,,,,
1,19799.49000012129,,,survey-multi-choice,6,358417,0.0-0.0-6.0,male,29,English,United States of America,Right,R568084887600gxrw,,,"{""Q0"":"" To decide what caused the activation of the GCM"",""Q1"":"" A GCM is a square marked with a star"",""Q2"":"" A GCM becomes active if all of its inputs are active"",""Q3"":"" You should click on just one detector in each network""}","[0,1,2,3]",,,,,,
1,4013.495000079274,img/inst_8.png,0.0,image-button-response,7,362438,0.0-1.0,male,29,English,United States of America,Right,R568084887600gxrw,,,,,,,,,,
1,22620.305000105873,"img/chain_R.png,img/chain_RL.gif",,causal-graph1,8,391709,0.0-2.0,male,29,English,United States of America,Right,R568084887600gxrw,active,1.0,,,Chain,Long,,,,node7
1,23863.119999878112,"img/branch_RE.png,img/branch_RTLE1.gif",,causal-graph1,9,422346,0.0-3.0,male,29,English,United States of America,Right,R568084887600gxrw,active,1.0,,,AND_Gate,Long,Event,Top,Short,node12
1,10390.47500002198,"img/branch_RBSS.png,img/branch_RBSS.gif",,causal-graph1,10,442594,0.0-4.0,male,29,English,United States of America,Right,R568084887600gxrw,active,1.0,,,AND_Gate,Short,State,Bottom,,node15
1,14482.459999853745,"img/branch_RE.png,img/branch_RTSE3.gif",,causal-graph1,11,464006,0.0-5.0,male,29,English,United States of America,Right,R568084887600gxrw,active,1.0,,,AND_Gate,Short,Event,Top,Long,node14
1,30929.864999838173,"img/branch_RE.png,img/branch_RTLE2.gif",,causal-graph1,12,505246,0.0-6.0,male,29,English,United States of America,Right,R568084887600gxrw,active,1.0,,,AND_Gate,Long,Event,Top,Medium,node14
1,30747.454999946054,"img/chain_R.png,img/chain_RM.gif",,causal-graph1,13,541167,0.0-7.0,male,29,English,United States of America,Right,R568084887600gxrw,active,1.0,,,Chain,Medium,,,,node7
1,15376.404999988154,"img/branch_RE.png,img/branch_RBME1.gif",,causal-graph1,14,560736,0.0-8.0,male,29,English,United States of America,Right,R568084887600gxrw,active,1.0,,,AND_Gate,Medium,Event,Bottom,Short,node14
1,17772.184999892488,"img/branch_RE.png,img/branch_RTSE1.gif",,causal-graph1,15,584776,0.0-9.0,male,29,English,United States of America,Right,R568084887600gxrw,active,1.0,,,AND_Gate,Short,Event,Top,Short,node14
1,19074.565000133593,"img/branch_RE.png,img/branch_RTME2.gif",,causal-graph1,16,606806,0.0-10.0,male,29,English,United States of America,Right,R568084887600gxrw,active,1.0,,,AND_Gate,Medium,Event,Top,Medium,node7
1,13810.864999890327,"img/branch_RTLS.png,img/branch_RTLS.gif",,causal-graph1,17,623734,0.0-11.0,male,29,English,United States of America,Right,R568084887600gxrw,active,1.0,,,AND_Gate,Long,State,Top,,node7
1,18807.154999813065,"img/branch_RE.png,img/branch_RTLE3.gif",,causal-graph1,18,645926,0.0-12.0,male,29,English,United States of America,Right,R568084887600gxrw,active,1.0,,,AND_Gate,Long,Event,Top,Long,node15
1,11859.489999944344,"img/branch_RTMS.png,img/branch_RTMS.gif",,causal-graph1,19,673408,0.0-13.0,male,29,English,United States of America,Right,R568084887600gxrw,active,1.0,,,AND_Gate,Medium,State,Top,,node14
1,12609.46499998681,"img/branch_RE.png,img/branch_RTSE2.gif",,causal-graph1,20,723584,0.0-14.0,male,29,English,United States of America,Right,R568084887600gxrw,active,1.0,,,AND_Gate,Short,Event,Top,Medium,node7
1,12595.985000021756,"img/chain_R.png,img/chain_RS.gif",,causal-graph1,21,740183,0.0-15.0,male,29,English,United States of America,Right,R568084887600gxrw,active,1.0,,,Chain,Short,,,,node8
1,171543.4899998363,"img/branch_RE.png,img/branch_RTME3.gif",,causal-graph1,22,915063,0.0-16.0,male,29,English,United States of America,Right,R568084887600gxrw,active,1.0,,,AND_Gate,Medium,Event,Top,Long,node14
1,7366.369999945164,img/inst_9.png,0.0,image-button-response,23,922434,0.0-17.0,male,29,English,United States of America,Right,R568084887600gxrw,,,,,,,,,,
1,140711.45499986596,,,survey-text,24,1063174,0.0-18.0,male,29,English,United States of America,Right,R568084887600gxrw,,,"{""Q0"":""thankyou""}",,,,,,,
2,14655.784999951718,img/inst_1.png,0.0,image-button-response,0,14661,0.0-0.0-0.0,male,33,english,United States of America,Left,R564700337210gxrw,,,,,,,,,,
2,,img/inst_2L.png,,causal-graph1,1,26619,0.0-0.0-1.0,male,33,english,United States of America,Left,R564700337210gxrw,inactive,,,,,,,,,
2,,"img/inst_3L.png,img/inst_3L.gif",,causal-graph1,2,45604,0.0-0.0-2.0,male,33,english,United States of America,Left,R564700337210gxrw,inactive,1.0,,,,,,,,
2,,img/inst_4L.png,,causal-graph1,3,48951,0.0-0.0-3.0,male,33,english,United States of America,Left,R564700337210gxrw,inactive,,,,,,,,,
2,,"img/inst_5L.png,img/inst_5LT.gif",,causal-graph1,4,192110,0.0-0.0-4.0,male,33,english,United States of America,Left,R564700337210gxrw,inactive,2.0,,,,,,,,
2,12397.48500008136,img/inst_6.png,0.0,image-button-response,5,204510,0.0-0.0-5.0,male,33,english,United States of America,Left,R564700337210gxrw,,,,,,,,,,
2,66142.79499999247,,,survey-multi-choice,6,270660,0.0-0.0-6.0,male,33,english,United States of America,Left,R564700337210gxrw,,,"{""Q0"":"" To decide what caused the activation of the GCM"",""Q1"":""A GCM is a square without any mark"",""Q2"":"" A GCM becomes active if all of its inputs are active"",""Q3"":"" You should click on just one detector in each network""}","[0,1,2,3]",,,,,,
2,2606.8100000265986,img/inst_7.png,0.0,image-button-response,7,273269,0.0-0.0-7.0-0.0,male,33,english,United States of America,Left,R564700337210gxrw,,,,,,,,,,
2,2847.4850000347938,img/inst_1.png,0.0,image-button-response,8,276119,0.0-0.1-0.1,male,33,english,United States of America,Left,R564700337210gxrw,,,,,,,,,,
2,,img/inst_2L.png,,causal-graph1,9,609539,0.0-0.1-1.1,male,33,english,United States of America,Left,R564700337210gxrw,inactive,,,,,,,,,
2,,"img/inst_3L.png,img/inst_3L.gif",,causal-graph1,10,645472,0.0-0.1-2.1,male,33,english,United States of America,Left,R564700337210gxrw,inactive,1.0,,,,,,,,
2,,img/inst_4L.png,,causal-graph1,11,647372,0.0-0.1-3.1,male,33,english,United States of America,Left,R564700337210gxrw,inactive,,,,,,,,,
2,,"img/inst_5L.png,img/inst_5LT.gif",,causal-graph1,12,731365,0.0-0.1-4.1,male,33,english,United States of America,Left,R564700337210gxrw,inactive,1.0,,,,,,,,
2,1528.1149998772892,img/inst_6.png,0.0,image-button-response,13,732894,0.0-0.1-5.1,male,33,english,United States of America,Left,R564700337210gxrw,,,,,,,,,,
2,76762.30499986559,,,survey-multi-choice,14,809663,0.0-0.1-6.1,male,33,english,United States of America,Left,R564700337210gxrw,,,"{""Q0"":"" To find out if the Gauge of Critical Moment (GCM) is activated or not"",""Q1"":"" A GCM is a square marked with a star"",""Q2"":"" A GCM becomes active if at least one of its inputs is active"",""Q3"":"" You should assign a number to every detector in every network""}","[0,1,2,3]",,,,,,
2,3527.345000067726,img/inst_7.png,0.0,image-button-response,15,813193,0.0-0.1-7.1-0.1,male,33,english,United States of America,Left,R564700337210gxrw,,,,,,,,,,
2,5958.319999976084,img/inst_1.png,0.0,image-button-response,16,819153,0.0-0.2-0.2,male,33,english,United States of America,Left,R564700337210gxrw,,,,,,,,,,
2,,img/inst_2L.png,,causal-graph1,17,821397,0.0-0.2-1.2,male,33,english,United States of America,Left,R564700337210gxrw,inactive,,,,,,,,,
2,,"img/inst_3L.png,img/inst_3L.gif",,causal-graph1,18,875504,0.0-0.2-2.2,male,33,english,United States of America,Left,R564700337210gxrw,inactive,1.0,,,,,,,,
2,,img/inst_4L.png,,causal-graph1,19,918091,0.0-0.2-3.2,male,33,english,United States of America,Left,R564700337210gxrw,inactive,,,,,,,,,
2,,"img/inst_5L.png,img/inst_5LT.gif",,causal-graph1,20,952557,0.0-0.2-4.2,male,33,english,United States of America,Left,R564700337210gxrw,inactive,1.0,,,,,,,,
2,5037.585000041872,img/inst_6.png,0.0,image-button-response,21,957597,0.0-0.2-5.2,male,33,english,United States of America,Left,R564700337210gxrw,,,,,,,,,,
2,21331.795000005513,,,survey-multi-choice,22,978931,0.0-0.2-6.2,male,33,english,United States of America,Left,R564700337210gxrw,,,"{""Q0"":"" To find out if the Gauge of Critical Moment (GCM) is activated or not"",""Q1"":"" A GCM is a square marked with a star"",""Q2"":"" A GCM becomes active if all of its inputs are active"",""Q3"":"" You should assign a number to every detector in every network""}","[0,1,2,3]",,,,,,
2,2481.819999869913,img/inst_7.png,0.0,image-button-response,23,981415,0.0-0.2-7.2-0.2,male,33,english,United States of America,Left,R564700337210gxrw,,,,,,,,,,
2,1528.2000000588596,img/inst_1.png,0.0,image-button-response,24,982949,0.0-0.3-0.3,male,33,english,United States of America,Left,R564700337210gxrw,,,,,,,,,,
2,,img/inst_2L.png,,causal-graph1,25,993619,0.0-0.3-1.3,male,33,english,United States of America,Left,R564700337210gxrw,inactive,,,,,,,,,
2,,"img/inst_3L.png,img/inst_3L.gif",,causal-graph1,26,1007428,0.0-0.3-2.3,male,33,english,United States of America,Left,R564700337210gxrw,inactive,1.0,,,,,,,,
2,,img/inst_4L.png,,causal-graph1,27,1013907,0.0-0.3-3.3,male,33,english,United States of America,Left,R564700337210gxrw,inactive,,,,,,,,,
2,,"img/inst_5L.png,img/inst_5LT.gif",,causal-graph1,28,1039735,0.0-0.3-4.3,male,33,english,United States of America,Left,R564700337210gxrw,inactive,1.0,,,,,,,,
2,1637.5550001394006,img/inst_6.png,0.0,image-button-response,29,1041375,0.0-0.3-5.3,male,33,english,United States of America,Left,R564700337210gxrw,,,,,,,,,,
2,49015.00000013039,,,survey-multi-choice,30,1090396,0.0-0.3-6.3,male,33,english,United States of America,Left,R564700337210gxrw,,,"{""Q0"":"" To decide what caused the activation of the GCM"",""Q1"":"" A GCM is a square marked with a star"",""Q2"":"" A GCM becomes active if all of its inputs are active"",""Q3"":"" You should click on just one detector in each network""}","[0,1,2,3]",,,,,,
2,3557.259999914095,img/inst_8.png,0.0,image-button-response,31,1093955,0.0-1.0,male,33,english,United States of America,Left,R564700337210gxrw,,,,,,,,,,
2,24884.339999873187,"img/branch_LE.png,img/branch_LTLE3.gif",,causal-graph1,32,1144551,0.0-2.0,male,33,english,United States of America,Left,R564700337210gxrw,active,2.0,,,AND_Gate,Long,Event,Top,Long,node9
2,14610.43499992229,"img/branch_LTSS.png,img/branch_LTSS.gif",,causal-graph1,33,1165178,0.0-3.0,male,33,english,United States of America,Left,R564700337210gxrw,active,1.0,,,AND_Gate,Short,State,Top,,node9
2,19435.455000028014,"img/branch_LE.png,img/branch_LTSE2.gif",,causal-graph1,34,1192762,0.0-4.0,male,33,english,United States of America,Left,R564700337210gxrw,active,1.0,,,AND_Gate,Short,Event,Top,Medium,node2
2,46211.53500000946,"img/chain_L.png,img/chain_LL.gif",,causal-graph1,35,1244554,0.0-5.0,male,33,english,United States of America,Left,R564700337210gxrw,active,1.0,,,Chain,Long,,,,node2
2,10857.569999992847,"img/branch_LE.png,img/branch_LTSE1.gif",,causal-graph1,36,1267442,0.0-6.0,male,33,english,United States of America,Left,R564700337210gxrw,active,1.0,,,AND_Gate,Short,Event,Top,Short,node1
2,18057.265000185,"img/branch_LTMS.png,img/branch_LTMS.gif",,causal-graph1,37,1289022,0.0-7.0,male,33,english,United States of America,Left,R564700337210gxrw,active,1.0,,,AND_Gate,Medium,State,Top,,node2
2,19841.260000132024,"img/branch_LE.png,img/branch_LTME1.gif",,causal-graph1,38,1311884,0.0-8.0,male,33,english,United States of America,Left,R564700337210gxrw,active,1.0,,,AND_Gate,Medium,Event,Top,Short,node9
2,16809.11000003107,"img/branch_LE.png,img/branch_LBME3.gif",,causal-graph1,39,1331943,0.0-9.0,male,33,english,United States of America,Left,R564700337210gxrw,active,1.0,,,AND_Gate,Medium,Event,Bottom,Long,node2
2,10868.255000095814,"img/chain_L.png,img/chain_LM.gif",,causal-graph1,40,1348422,0.0-10.0,male,33,english,United States of America,Left,R564700337210gxrw,active,1.0,,,Chain,Medium,,,,node2
2,30865.2749999892,"img/branch_LE.png,img/branch_LTLE2.gif",,causal-graph1,41,1384954,0.0-11.0,male,33,english,United States of America,Left,R564700337210gxrw,active,1.0,,,AND_Gate,Long,Event,Top,Medium,node9
2,28076.76500012167,"img/chain_L.png,img/chain_LS.gif",,causal-graph1,42,1417007,0.0-12.0,male,33,english,United States of America,Left,R564700337210gxrw,active,1.0,,,Chain,Short,,,,node3
2,13220.329999923706,"img/branch_LE.png,img/branch_LBLE1.gif",,causal-graph1,43,1433365,0.0-13.0,male,33,english,United States of America,Left,R564700337210gxrw,active,1.0,,,AND_Gate,Long,Event,Bottom,Short,node8
2,11942.224999889731,"img/branch_LTLS.png,img/branch_LTLS.gif",,causal-graph1,44,1448823,0.0-14.0,male,33,english,United States of America,Left,R564700337210gxrw,active,1.0,,,AND_Gate,Long,State,Top,,node9
2,12499.779999954626,"img/branch_LE.png,img/branch_LBME2.gif",,causal-graph1,45,1462648,0.0-15.0,male,33,english,United States of America,Left,R564700337210gxrw,active,1.0,,,AND_Gate,Medium,Event,Bottom,Medium,node9
2,13415.074999909848,"img/branch_LE.png,img/branch_LBSE3.gif",,causal-graph1,46,1477801,0.0-16.0,male,33,english,United States of America,Left,R564700337210gxrw,active,1.0,,,AND_Gate,Short,Event,Bottom,Long,node9
2,3302.769999951124,img/inst_9.png,0.0,image-button-response,47,1481106,0.0-17.0,male,33,english,United States of America,Left,R564700337210gxrw,,,,,,,,,,
2,5701.594999991357,,,survey-text,48,1486820,0.0-18.0,male,33,english,United States of America,Left,R564700337210gxrw,,,"{""Q0"":""noone""}",,,,,,,
3,21065.10000000708,img/inst_1.png,0.0,image-button-response,0,21080,0.0-0.0-0.0,male,52,English,United States of America,Right,R569457007290gxrw,,,,,,,,,,
3,,img/inst_2R.png,,causal-graph1,1,35611,0.0-0.0-1.0,male,52,English,United States of America,Right,R569457007290gxrw,inactive,,,,,,,,,
3,,"img/inst_3R.png,img/inst_3R.gif",,causal-graph1,2,77073,0.0-0.0-2.0,male,52,English,United States of America,Right,R569457007290gxrw,inactive,1.0,,,,,,,,
3,,img/inst_4R.png,,causal-graph1,3,145377,0.0-0.0-3.0,male,52,English,United States of America,Right,R569457007290gxrw,inactive,,,,,,,,,
3,,"img/inst_5R.png,img/inst_5RT.gif",,causal-graph1,4,177802,0.0-0.0-4.0,male,52,English,United States of America,Right,R569457007290gxrw,inactive,1.0,,,,,,,,
3,21699.985000072047,img/inst_6.png,0.0,image-button-response,5,199504,0.0-0.0-5.0,male,52,English,United States of America,Right,R569457007290gxrw,,,,,,,,,,
3,92889.81499988586,,,survey-multi-choice,6,292397,0.0-0.0-6.0,male,52,English,United States of America,Right,R569457007290gxrw,,,"{""Q0"":"" To find out if the Gauge of Critical Moment (GCM) is activated or not"",""Q1"":""A GCM is a square without any mark"",""Q2"":"" A GCM becomes active if at least one of its inputs is active"",""Q3"":"" You should click on just one detector in each network""}","[0,1,2,3]",,,,,,
3,7160.594999790192,img/inst_7.png,0.0,image-button-response,7,299560,0.0-0.0-7.0-0.0,male,52,English,United States of America,Right,R569457007290gxrw,,,,,,,,,,
3,8566.965000005439,img/inst_1.png,0.0,image-button-response,8,308129,0.0-0.1-0.1,male,52,English,United States of America,Right,R569457007290gxrw,,,,,,,,,,
3,,img/inst_2R.png,,causal-graph1,9,311777,0.0-0.1-1.1,male,52,English,United States of America,Right,R569457007290gxrw,inactive,,,,,,,,,
3,,"img/inst_3R.png,img/inst_3R.gif",,causal-graph1,10,324498,0.0-0.1-2.1,male,52,English,United States of America,Right,R569457007290gxrw,inactive,1.0,,,,,,,,
3,,img/inst_4R.png,,causal-graph1,11,340699,0.0-0.1-3.1,male,52,English,United States of America,Right,R569457007290gxrw,inactive,,,,,,,,,
3,,"img/inst_5R.png,img/inst_5RT.gif",,causal-graph1,12,367184,0.0-0.1-4.1,male,52,English,United States of America,Right,R569457007290gxrw,inactive,1.0,,,,,,,,
3,6754.875000100584,img/inst_6.png,0.0,image-button-response,13,373941,0.0-0.1-5.1,male,52,English,United States of America,Right,R569457007290gxrw,,,,,,,,,,
3,40940.18499995582,,,survey-multi-choice,14,414886,0.0-0.1-6.1,male,52,English,United States of America,Right,R569457007290gxrw,,,"{""Q0"":"" To decide what causes the activation of each detector"",""Q1"":"" A GCM is a square marked with a star"",""Q2"":"" A GCM becomes active if all of its inputs are active"",""Q3"":"" Some detectors are not clickable""}","[0,1,2,3]",,,,,,
3,1642.0599999837577,img/inst_7.png,0.0,image-button-response,15,416530,0.0-0.1-7.1-0.1,male,52,English,United States of America,Right,R569457007290gxrw,,,,,,,,,,
3,1274.9550000298766,img/inst_1.png,0.0,image-button-response,16,417806,0.0-0.2-0.2,male,52,English,United States of America,Right,R569457007290gxrw,,,,,,,,,,
3,,img/inst_2R.png,,causal-graph1,17,419085,0.0-0.2-1.2,male,52,English,United States of America,Right,R569457007290gxrw,inactive,,,,,,,,,
3,,"img/inst_3R.png,img/inst_3R.gif",,causal-graph1,18,425145,0.0-0.2-2.2,male,52,English,United States of America,Right,R569457007290gxrw,inactive,1.0,,,,,,,,
3,,img/inst_4R.png,,causal-graph1,19,426273,0.0-0.2-3.2,male,52,English,United States of America,Right,R569457007290gxrw,inactive,,,,,,,,,
3,,"img/inst_5R.png,img/inst_5RT.gif",,causal-graph1,20,440531,0.0-0.2-4.2,male,52,English,United States of America,Right,R569457007290gxrw,inactive,1.0,,,,,,,,
3,1884.6350000239909,img/inst_6.png,0.0,image-button-response,21,442417,0.0-0.2-5.2,male,52,English,United States of America,Right,R569457007290gxrw,,,,,,,,,,
3,13543.019999982791,,,survey-multi-choice,22,455962,0.0-0.2-6.2,male,52,English,United States of America,Right,R569457007290gxrw,,,"{""Q0"":"" To decide what causes the activation of each detector"",""Q1"":"" A GCM is a square marked with a star"",""Q2"":"" A GCM becomes active if all of its inputs are active"",""Q3"":"" You should click on just one detector in each network""}","[0,1,2,3]",,,,,,
3,1390.2700000908224,img/inst_7.png,0.0,image-button-response,23,457354,0.0-0.2-7.2-0.2,male,52,English,United States of America,Right,R569457007290gxrw,,,,,,,,,,
3,1271.4199998881668,img/inst_1.png,0.0,image-button-response,24,458627,0.0-0.3-0.3,male,52,English,United States of America,Right,R569457007290gxrw,,,,,,,,,,
3,,img/inst_2R.png,,causal-graph1,25,459934,0.0-0.3-1.3,male,52,English,United States of America,Right,R569457007290gxrw,inactive,,,,,,,,,
3,,"img/inst_3R.png,img/inst_3R.gif",,causal-graph1,26,469153,0.0-0.3-2.3,male,52,English,United States of America,Right,R569457007290gxrw,inactive,1.0,,,,,,,,
3,,img/inst_4R.png,,causal-graph1,27,470531,0.0-0.3-3.3,male,52,English,United States of America,Right,R569457007290gxrw,inactive,,,,,,,,,
3,,"img/inst_5R.png,img/inst_5RT.gif",,causal-graph1,28,483432,0.0-0.3-4.3,male,52,English,United States of America,Right,R569457007290gxrw,inactive,1.0,,,,,,,,
3,1342.5850002095106,img/inst_6.png,0.0,image-button-response,29,484776,0.0-0.3-5.3,male,52,English,United States of America,Right,R569457007290gxrw,,,,,,,,,,
3,9279.325000010429,,,survey-multi-choice,30,494057,0.0-0.3-6.3,male,52,English,United States of America,Right,R569457007290gxrw,,,"{""Q0"":"" To decide what causes the activation of each detector"",""Q1"":"" A GCM is a square marked with a star"",""Q2"":"" A GCM becomes active if all of its inputs are active"",""Q3"":"" You should assign a number to every detector in every network""}","[0,1,2,3]",,,,,,
3,1373.3200000133365,img/inst_7.png,0.0,image-button-response,31,495432,0.0-0.3-7.3-0.3,male,52,English,United States of America,Right,R569457007290gxrw,,,,,,,,,,
3,2039.1150000505152,img/inst_1.png,0.0,image-button-response,32,497473,0.0-0.4-0.4,male,52,English,United States of America,Right,R569457007290gxrw,,,,,,,,,,
3,,img/inst_2R.png,,causal-graph1,33,498531,0.0-0.4-1.4,male,52,English,United States of America,Right,R569457007290gxrw,inactive,,,,,,,,,
3,,"img/inst_3R.png,img/inst_3R.gif",,causal-graph1,34,505346,0.0-0.4-2.4,male,52,English,United States of America,Right,R569457007290gxrw,inactive,1.0,,,,,,,,
3,,img/inst_4R.png,,causal-graph1,35,506799,0.0-0.4-3.4,male,52,English,United States of America,Right,R569457007290gxrw,inactive,,,,,,,,,
3,,"img/inst_5R.png,img/inst_5RT.gif",,causal-graph1,36,525533,0.0-0.4-4.4,male,52,English,United States of America,Right,R569457007290gxrw,inactive,1.0,,,,,,,,
3,14914.289999986067,img/inst_6.png,0.0,image-button-response,37,540449,0.0-0.4-5.4,male,52,English,United States of America,Right,R569457007290gxrw,,,,,,,,,,
3,83889.99000005424,,,survey-multi-choice,38,624342,0.0-0.4-6.4,male,52,English,United States of America,Right,R569457007290gxrw,,,"{""Q0"":"" To decide what causes the activation of each detector"",""Q1"":"" A GCM is a square marked with a star"",""Q2"":"" A GCM can activate itself at any stage"",""Q3"":"" You should click on just one detector in each network""}","[0,1,2,3]",,,,,,
3,2386.2900000531226,img/inst_7.png,0.0,image-button-response,39,626730,0.0-0.4-7.4-0.4,male,52,English,United States of America,Right,R569457007290gxrw,,,,,,,,,,
3,3347.3150001373137,img/inst_1.png,0.0,image-button-response,40,630078,0.0-0.5-0.5,male,52,English,United States of America,Right,R569457007290gxrw,,,,,,,,,,
3,,img/inst_2R.png,,causal-graph1,41,634471,0.0-0.5-1.5,male,52,English,United States of America,Right,R569457007290gxrw,inactive,,,,,,,,,
3,,"img/inst_3R.png,img/inst_3R.gif",,causal-graph1,42,644000,0.0-0.5-2.5,male,52,English,United States of America,Right,R569457007290gxrw,inactive,1.0,,,,,,,,
3,,img/inst_4R.png,,causal-graph1,43,662565,0.0-0.5-3.5,male,52,English,United States of America,Right,R569457007290gxrw,inactive,,,,,,,,,
3,,"img/inst_5R.png,img/inst_5RT.gif",,causal-graph1,44,697008,0.0-0.5-4.5,male,52,English,United States of America,Right,R569457007290gxrw,inactive,1.0,,,,,,,,
3,12513.935000170022,img/inst_6.png,0.0,image-button-response,45,709523,0.0-0.5-5.5,male,52,English,United States of America,Right,R569457007290gxrw,,,,,,,,,,
3,50210.85000014863,,,survey-multi-choice,46,759737,0.0-0.5-6.5,male,52,English,United States of America,Right,R569457007290gxrw,,,"{""Q0"":"" To decide what caused the activation of the GCM"",""Q1"":"" A GCM is a square marked with a star"",""Q2"":"" A GCM becomes active if all of its inputs are active"",""Q3"":"" You should assign a number to every detector in every network""}","[0,1,2,3]",,,,,,
3,1102.3299999069422,img/inst_7.png,0.0,image-button-response,47,760840,0.0-0.5-7.5-0.5,male,52,English,United States of America,Right,R569457007290gxrw,,,,,,,,,,
3,1618.640000000596,img/inst_1.png,0.0,image-button-response,48,762462,0.0-0.6-0.6,male,52,English,United States of America,Right,R569457007290gxrw,,,,,,,,,,
3,,img/inst_2R.png,,causal-graph1,49,764899,0.0-0.6-1.6,male,52,English,United States of America,Right,R569457007290gxrw,inactive,,,,,,,,,
3,,"img/inst_3R.png,img/inst_3R.gif",,causal-graph1,50,779969,0.0-0.6-2.6,male,52,English,United States of America,Right,R569457007290gxrw,inactive,1.0,,,,,,,,
3,,img/inst_4R.png,,causal-graph1,51,787397,0.0-0.6-3.6,male,52,English,United States of America,Right,R569457007290gxrw,inactive,,,,,,,,,
3,,"img/inst_5R.png,img/inst_5RT.gif",,causal-graph1,52,799146,0.0-0.6-4.6,male,52,English,United States of America,Right,R569457007290gxrw,inactive,1.0,,,,,,,,
3,1618.4649998322132,img/inst_6.png,0.0,image-button-response,53,800767,0.0-0.6-5.6,male,52,English,United States of America,Right,R569457007290gxrw,,,,,,,,,,
3,10319.365000119433,,,survey-multi-choice,54,811088,0.0-0.6-6.6,male,52,English,United States of America,Right,R569457007290gxrw,,,"{""Q0"":"" To decide what caused the activation of the GCM"",""Q1"":"" A GCM is a square marked with a star"",""Q2"":"" A GCM becomes active if all of its inputs are active"",""Q3"":"" You should click on just one detector in each network""}","[0,1,2,3]",,,,,,
3,4618.22500010021,img/inst_8.png,0.0,image-button-response,55,815708,0.0-1.0,male,52,English,United States of America,Right,R569457007290gxrw,,,,,,,,,,
3,34645.99999994971,"img/branch_RE.png,img/branch_RTLE2.gif",,causal-graph1,56,858253,0.0-2.0,male,52,English,United States of America,Right,R569457007290gxrw,active,1.0,,,AND_Gate,Long,Event,Top,Medium,node3
3,22849.099999992177,"img/branch_RE.png,img/branch_RTLE3.gif",,causal-graph1,57,901716,0.0-3.0,male,52,English,United States of America,Right,R569457007290gxrw,active,2.0,,,AND_Gate,Long,Event,Top,Long,node3
3,15994.19999984093,"img/branch_RE.png,img/branch_RTME2.gif",,causal-graph1,58,923867,0.0-4.0,male,52,English,United States of America,Right,R569457007290gxrw,active,1.0,,,AND_Gate,Medium,Event,Top,Medium,node5
3,9012.164999963716,"img/chain_R.png,img/chain_RM.gif",,causal-graph1,59,936587,0.0-5.0,male,52,English,United States of America,Right,R569457007290gxrw,active,1.0,,,Chain,Medium,,,,node5
3,8867.284999927506,"img/branch_RBSS.png,img/branch_RBSS.gif",,causal-graph1,60,948444,0.0-6.0,male,52,English,United States of America,Right,R569457007290gxrw,active,1.0,,,AND_Gate,Short,State,Bottom,,node14
3,12904.26500001922,"img/branch_RE.png,img/branch_RBLE1.gif",,causal-graph1,61,963613,0.0-7.0,male,52,English,United States of America,Right,R569457007290gxrw,active,1.0,,,AND_Gate,Long,Event,Bottom,Short,node10
3,13154.289999976752,"img/branch_RTLS.png,img/branch_RTLS.gif",,causal-graph1,62,981867,0.0-8.0,male,52,English,United States of America,Right,R569457007290gxrw,active,1.0,,,AND_Gate,Long,State,Top,,node10
3,94035.82499991173,"img/branch_RBMS.png,img/branch_RBMS.gif",,causal-graph1,63,1081804,0.0-9.0,male,52,English,United States of America,Right,R569457007290gxrw,active,1.0,,,AND_Gate,Medium,State,Bottom,,node5
3,15786.030000075698,"img/branch_RE.png,img/branch_RTME3.gif",,causal-graph1,64,1100203,0.0-10.0,male,52,English,United States of America,Right,R569457007290gxrw,active,1.0,,,AND_Gate,Medium,Event,Top,Long,node5
3,13155.950000043958,"img/branch_RE.png,img/branch_RTSE3.gif",,causal-graph1,65,1116055,0.0-11.0,male,52,English,United States of America,Right,R569457007290gxrw,active,1.0,,,AND_Gate,Short,Event,Top,Long,node7
3,9721.164999995379,"img/chain_R.png,img/chain_RL.gif",,causal-graph1,66,1127792,0.0-12.0,male,52,English,United States of America,Right,R569457007290gxrw,active,1.0,,,Chain,Long,,,,node3
3,9350.429999874903,"img/branch_RE.png,img/branch_RTSE1.gif",,causal-graph1,67,1139385,0.0-13.0,male,52,English,United States of America,Right,R569457007290gxrw,active,1.0,,,AND_Gate,Short,Event,Top,Short,node7
3,10049.069999950008,"img/branch_RE.png,img/branch_RTSE2.gif",,causal-graph1,68,1151926,0.0-14.0,male,52,English,United States of America,Right,R569457007290gxrw,active,1.0,,,AND_Gate,Short,Event,Top,Medium,node7
3,11089.930000016464,"img/branch_RE.png,img/branch_RBME1.gif",,causal-graph1,69,1165380,0.0-15.0,male,52,English,United States of America,Right,R569457007290gxrw,active,1.0,,,AND_Gate,Medium,Event,Bottom,Short,node12
3,10577.354999957606,"img/chain_R.png,img/chain_RS.gif",,causal-graph1,70,1178412,0.0-16.0,male,52,English,United States of America,Right,R569457007290gxrw,active,1.0,,,Chain,Short,,,,node7
3,6814.02499997057,img/inst_9.png,0.0,image-button-response,71,1185229,0.0-17.0,male,52,English,United States of America,Right,R569457007290gxrw,,,,,,,,,,
3,5204.640000127256,,,survey-text,72,1190450,0.0-18.0,male,52,English,United States of America,Right,R569457007290gxrw,,,"{""Q0"":""""}",,,,,,,
4,3473.0000000017753,img/inst_1.png,0.0,image-button-response,0,3476,0.0-0.0-0.0,male,30,English,United States of America,Left,R565583967120gxrw,,,,,,,,,,
4,,img/inst_2L.png,,causal-graph1,1,5954,0.0-0.0-1.0,male,30,English,United States of America,Left,R565583967120gxrw,inactive,,,,,,,,,
4,,"img/inst_3L.png,img/inst_3L.gif",,causal-graph1,2,29064,0.0-0.0-2.0,male,30,English,United States of America,Left,R565583967120gxrw,inactive,3.0,,,,,,,,
4,,img/inst_4L.png,,causal-graph1,3,30602,0.0-0.0-3.0,male,30,English,United States of America,Left,R565583967120gxrw,inactive,,,,,,,,,
4,,"img/inst_5L.png,img/inst_5LT.gif",,causal-graph1,4,46756,0.0-0.0-4.0,male,30,English,United States of America,Left,R565583967120gxrw,inactive,1.0,,,,,,,,
4,3200.000000000728,img/inst_6.png,0.0,image-button-response,5,49957,0.0-0.0-5.0,male,30,English,United States of America,Left,R565583967120gxrw,,,,,,,,,,
4,11112.999999997555,,,survey-multi-choice,6,61074,0.0-0.0-6.0,male,30,English,United States of America,Left,R565583967120gxrw,,,"{""Q0"":"" To decide what caused the activation of the GCM"",""Q1"":"" A GCM is a square marked with a star"",""Q2"":"" A GCM becomes active if all of its inputs are active"",""Q3"":"" You should click on just one detector in each network""}","[0,1,2,3]",,,,,,
4,1619.9999999989816,img/inst_8.png,0.0,image-button-response,7,62697,0.0-1.0,male,30,English,United States of America,Left,R565583967120gxrw,,,,,,,,,,
4,18827.00000000113,"img/branch_LBMS.png,img/branch_LBMS.gif",,causal-graph1,8,144219,0.0-2.0,male,30,English,United States of America,Left,R565583967120gxrw,active,3.0,,,AND_Gate,Medium,State,Bottom,,node2
4,18465.000000000146,"img/chain_L.png,img/chain_LL.gif",,causal-graph1,9,171669,0.0-3.0,male,30,English,United States of America,Left,R565583967120gxrw,active,1.0,,,Chain,Long,,,,node2
4,14565.999999998894,"img/branch_LE.png,img/branch_LTME2.gif",,causal-graph1,10,199444,0.0-4.0,male,30,English,United States of America,Left,R565583967120gxrw,active,1.0,,,AND_Gate,Medium,Event,Top,Medium,node10
4,41863.00000000122,"img/branch_LE.png,img/branch_LBLE2.gif",,causal-graph1,11,249871,0.0-5.0,male,30,English,United States of America,Left,R565583967120gxrw,active,1.0,,,AND_Gate,Long,Event,Bottom,Medium,node8
4,16352.999999999129,"img/branch_LBLS.png,img/branch_LBLS.gif",,causal-graph1,12,275587,0.0-6.0,male,30,English,United States of America,Left,R565583967120gxrw,active,1.0,,,AND_Gate,Long,State,Bottom,,node9
4,39760.00000000204,"img/branch_LE.png,img/branch_LTME3.gif",,causal-graph1,13,324305,0.0-7.0,male,30,English,United States of America,Left,R565583967120gxrw,active,1.0,,,AND_Gate,Medium,Event,Top,Long,node10
4,9218.000000000755,"img/chain_L.png,img/chain_LS.gif",,causal-graph1,14,341908,0.0-8.0,male,30,English,United States of America,Left,R565583967120gxrw,active,1.0,,,Chain,Short,,,,node2
4,49170.99999999849,"img/branch_LE.png,img/branch_LBLE3.gif",,causal-graph1,15,399131,0.0-9.0,male,30,English,United States of America,Left,R565583967120gxrw,active,1.0,,,AND_Gate,Long,Event,Bottom,Long,node9
4,12735.00000000058,"img/chain_L.png,img/chain_LM.gif",,causal-graph1,16,490593,0.0-10.0,male,30,English,United States of America,Left,R565583967120gxrw,active,1.0,,,Chain,Medium,,,,node1
4,13406.999999999302,"img/branch_LE.png,img/branch_LTSE3.gif",,causal-graph1,17,506751,0.0-11.0,male,30,English,United States of America,Left,R565583967120gxrw,active,1.0,,,AND_Gate,Short,Event,Top,Long,node12
4,40728.99999999942,"img/branch_LE.png,img/branch_LBSE2.gif",,causal-graph1,18,555844,0.0-12.0,male,30,English,United States of America,Left,R565583967120gxrw,active,1.0,,,AND_Gate,Short,Event,Bottom,Medium,node13
4,15737.999999997555,"img/branch_LE.png,img/branch_LBSE1.gif",,causal-graph1,19,573712,0.0-13.0,male,30,English,United States of America,Left,R565583967120gxrw,active,1.0,,,AND_Gate,Short,Event,Bottom,Short,node11
4,23095.99999999767,"img/branch_LE.png,img/branch_LBLE1.gif",,causal-graph1,20,599390,0.0-14.0,male,30,English,United States of America,Left,R565583967120gxrw,active,1.0,,,AND_Gate,Long,Event,Bottom,Short,node9
4,9349.00000000198,"img/branch_LTSS.png,img/branch_LTSS.gif",,causal-graph1,21,615435,0.0-15.0,male,30,English,United States of America,Left,R565583967120gxrw,active,1.0,,,AND_Gate,Short,State,Top,,node11
4,48028.9999999986,"img/branch_LE.png,img/branch_LBME1.gif",,causal-graph1,22,665278,0.0-16.0,male,30,English,United States of America,Left,R565583967120gxrw,active,1.0,,,AND_Gate,Medium,Event,Bottom,Short,node11
4,1388.0000000026776,img/inst_9.png,0.0,image-button-response,23,666667,0.0-17.0,male,30,English,United States of America,Left,R565583967120gxrw,,,,,,,,,,
4,4008.9999999982538,,,survey-text,24,670689,0.0-18.0,male,30,English,United States of America,Left,R565583967120gxrw,,,"{""Q0"":""well""}",,,,,,,
5,3328.0000000013392,img/inst_1.png,0.0,image-button-response,0,3334,0.0-0.0-0.0,male,30,English ,United States of America,Right,R568127437130gxrw,,,,,,,,,,
5,,img/inst_2R.png,,causal-graph1,1,6019,0.0-0.0-1.0,male,30,English ,United States of America,Right,R568127437130gxrw,inactive,,,,,,,,,
5,,"img/inst_3R.png,img/inst_3R.gif",,causal-graph1,2,21067,0.0-0.0-2.0,male,30,English ,United States of America,Right,R568127437130gxrw,inactive,1.0,,,,,,,,
5,,img/inst_4R.png,,causal-graph1,3,24515,0.0-0.0-3.0,male,30,English ,United States of America,Right,R568127437130gxrw,inactive,,,,,,,,,
5,,"img/inst_5R.png,img/inst_5RB.gif",,causal-graph1,4,58985,0.0-0.0-4.0,male,30,English ,United States of America,Right,R568127437130gxrw,inactive,2.0,,,,,,,,
5,2605.999999999767,img/inst_6.png,0.0,image-button-response,5,61593,0.0-0.0-5.0,male,30,English ,United States of America,Right,R568127437130gxrw,,,,,,,,,,
5,43110.00000000058,,,survey-multi-choice,6,104707,0.0-0.0-6.0,male,30,English ,United States of America,Right,R568127437130gxrw,,,"{""Q0"":"" To decide what caused the activation of the GCM"",""Q1"":"" A GCM is a square marked with a star"",""Q2"":"" A GCM becomes active if all of its inputs are active"",""Q3"":"" You should click on just one detector in each network""}","[0,1,2,3]",,,,,,
5,1947.0000000001166,img/inst_8.png,0.0,image-button-response,7,106665,0.0-1.0,male,30,English ,United States of America,Right,R568127437130gxrw,,,,,,,,,,
5,21438.99999999849,"img/branch_RE.png,img/branch_RTLE2.gif",,causal-graph1,8,131157,0.0-2.0,male,30,English ,United States of America,Right,R568127437130gxrw,active,1.0,,,AND_Gate,Long,Event,Top,Medium,node4
5,9771.00000000064,"img/chain_R.png,img/chain_RL.gif",,causal-graph1,9,145026,0.0-3.0,male,30,English ,United States of America,Right,R568127437130gxrw,active,1.0,,,Chain,Long,,,,node8
5,39728.0000000028,"img/branch_RE.png,img/branch_RBLE3.gif",,causal-graph1,10,187635,0.0-4.0,male,30,English ,United States of America,Right,R568127437130gxrw,active,1.0,,,AND_Gate,Long,Event,Bottom,Long,node12
5,31463.999999999938,"img/branch_RE.png,img/branch_RBME2.gif",,causal-graph1,11,222036,0.0-5.0,male,30,English ,United States of America,Right,R568127437130gxrw,active,1.0,,,AND_Gate,Medium,Event,Bottom,Medium,node6
5,13353.99999999936,"img/branch_RE.png,img/branch_RBSE3.gif",,causal-graph1,12,237967,0.0-6.0,male,30,English ,United States of America,Right,R568127437130gxrw,active,1.0,,,AND_Gate,Short,Event,Bottom,Long,node14
5,18872.999999999596,"img/branch_RE.png,img/branch_RTSE1.gif",,causal-graph1,13,261308,0.0-7.0,male,30,English ,United States of America,Right,R568127437130gxrw,active,1.0,,,AND_Gate,Short,Event,Top,Short,node15
5,33965.000000003776,"img/branch_RE.png,img/branch_RTME1.gif",,causal-graph1,14,298103,0.0-8.0,male,30,English ,United States of America,Right,R568127437130gxrw,active,1.0,,,AND_Gate,Medium,Event,Top,Short,node14
5,18864.999999997963,"img/branch_RE.png,img/branch_RBSE2.gif",,causal-graph1,15,319836,0.0-9.0,male,30,English ,United States of America,Right,R568127437130gxrw,active,1.0,,,AND_Gate,Short,Event,Bottom,Medium,node15
5,9589.999999996508,"img/branch_RTMS.png,img/branch_RTMS.gif",,causal-graph1,16,334406,0.0-10.0,male,30,English ,United States of America,Right,R568127437130gxrw,active,1.0,,,AND_Gate,Medium,State,Top,,node14
5,7989.000000001396,"img/branch_RBSS.png,img/branch_RBSS.gif",,causal-graph1,17,345308,0.0-11.0,male,30,English ,United States of America,Right,R568127437130gxrw,active,1.0,,,AND_Gate,Short,State,Bottom,,node7
5,7959.000000002561,"img/chain_R.png,img/chain_RS.gif",,causal-graph1,18,356687,0.0-12.0,male,30,English ,United States of America,Right,R568127437130gxrw,active,1.0,,,Chain,Short,,,,node7
5,8529.00000000227,"img/chain_R.png,img/chain_RM.gif",,causal-graph1,19,368110,0.0-13.0,male,30,English ,United States of America,Right,R568127437130gxrw,active,1.0,,,Chain,Medium,,,,node7
5,14773.000000001048,"img/branch_RE.png,img/branch_RBME3.gif",,causal-graph1,20,385556,0.0-14.0,male,30,English ,United States of America,Right,R568127437130gxrw,active,1.0,,,AND_Gate,Medium,Event,Bottom,Long,node7
5,13644.999999996799,"img/branch_RE.png,img/branch_RTLE1.gif",,causal-graph1,21,402519,0.0-15.0,male,30,English ,United States of America,Right,R568127437130gxrw,active,1.0,,,AND_Gate,Long,Event,Top,Short,node13
5,11841.00000000035,"img/branch_RBLS.png,img/branch_RBLS.gif",,causal-graph1,22,417485,0.0-16.0,male,30,English ,United States of America,Right,R568127437130gxrw,active,1.0,,,AND_Gate,Long,State,Bottom,,node6
5,2172.999999995227,img/inst_9.png,0.0,image-button-response,23,419664,0.0-17.0,male,30,English ,United States of America,Right,R568127437130gxrw,,,,,,,,,,
5,6450.0000000043665,,,survey-text,24,426140,0.0-18.0,male,30,English ,United States of America,Right,R568127437130gxrw,,,"{""Q0"":""good""}",,,,,,,
6,4358.0000000001755,img/inst_1.png,0.0,image-button-response,0,4365,0.0-0.0-0.0,male,34,english,United States of America,Right,R563291027570gxrw,,,,,,,,,,
6,,img/inst_2R.png,,causal-graph1,1,18418,0.0-0.0-1.0,male,34,english,United States of America,Right,R563291027570gxrw,inactive,,,,,,,,,
6,,"img/inst_3R.png,img/inst_3R.gif",,causal-graph1,2,33634,0.0-0.0-2.0,male,34,english,United States of America,Right,R563291027570gxrw,inactive,1.0,,,,,,,,
6,,img/inst_4R.png,,causal-graph1,3,37176,0.0-0.0-3.0,male,34,english,United States of America,Right,R563291027570gxrw,inactive,,,,,,,,,
6,,"img/inst_5R.png,img/inst_5RT.gif",,causal-graph1,4,53231,0.0-0.0-4.0,male,34,english,United States of America,Right,R563291027570gxrw,inactive,1.0,,,,,,,,
6,4230.999999999767,img/inst_6.png,0.0,image-button-response,5,57464,0.0-0.0-5.0,male,34,english,United States of America,Right,R563291027570gxrw,,,,,,,,,,
6,34828.00000000132,,,survey-multi-choice,6,92298,0.0-0.0-6.0,male,34,english,United States of America,Right,R563291027570gxrw,,,"{""Q0"":"" To decide what caused the activation of the GCM"",""Q1"":"" A GCM is a square marked with a star"",""Q2"":"" A GCM becomes active if all of its inputs are active"",""Q3"":"" You should click on just one detector in each network""}","[0,1,2,3]",,,,,,
6,65476.00000000232,img/inst_8.png,0.0,image-button-response,7,157781,0.0-1.0,male,34,english,United States of America,Right,R563291027570gxrw,,,,,,,,,,
6,60479.999999999534,"img/chain_R.png,img/chain_RL.gif",,causal-graph1,8,222436,0.0-2.0,male,34,english,United States of America,Right,R563291027570gxrw,active,1.0,,,Chain,Long,,,,node6
6,12370.000000002678,"img/chain_R.png,img/chain_RS.gif",,causal-graph1,9,238391,0.0-3.0,male,34,english,United States of America,Right,R563291027570gxrw,active,1.0,,,Chain,Short,,,,node8
6,16771.000000000582,"img/branch_RE.png,img/branch_RTSE2.gif",,causal-graph1,10,258571,0.0-4.0,male,34,english,United States of America,Right,R563291027570gxrw,active,1.0,,,AND_Gate,Short,Event,Top,Medium,node15
6,35314.99999999866,"img/branch_RE.png,img/branch_RTME1.gif",,causal-graph1,11,296826,0.0-5.0,male,34,english,United States of America,Right,R563291027570gxrw,active,1.0,,,AND_Gate,Medium,Event,Top,Short,node14
6,17476.999999998952,"img/branch_RE.png,img/branch_RBSE3.gif",,causal-graph1,12,319110,0.0-6.0,male,34,english,United States of America,Right,R563291027570gxrw,active,1.0,,,AND_Gate,Short,Event,Bottom,Long,node7
6,28560.00000000128,"img/branch_RTLS.png,img/branch_RTLS.gif",,causal-graph1,13,350553,0.0-7.0,male,34,english,United States of America,Right,R563291027570gxrw,active,1.0,,,AND_Gate,Long,State,Top,,node6
6,13288.99999999709,"img/branch_RE.png,img/branch_RBME2.gif",,causal-graph1,14,367558,0.0-8.0,male,34,english,United States of America,Right,R563291027570gxrw,active,1.0,,,AND_Gate,Medium,Event,Bottom,Medium,node14
6,28843.0000000007,"img/branch_RE.png,img/branch_RTSE1.gif",,causal-graph1,15,399794,0.0-9.0,male,34,english,United States of America,Right,R563291027570gxrw,active,1.0,,,AND_Gate,Short,Event,Top,Short,node14
6,14583.999999998836,"img/branch_RTMS.png,img/branch_RTMS.gif",,causal-graph1,16,417508,0.0-10.0,male,34,english,United States of America,Right,R563291027570gxrw,active,1.0,,,AND_Gate,Medium,State,Top,,node14
6,122188.00000000198,"img/branch_RE.png,img/branch_RBLE1.gif",,causal-graph1,17,542362,0.0-11.0,male,34,english,United States of America,Right,R563291027570gxrw,active,1.0,,,AND_Gate,Long,Event,Bottom,Short,node14
6,23518.0,"img/branch_RE.png,img/branch_RTLE3.gif",,causal-graph1,18,568870,0.0-12.0,male,34,english,United States of America,Right,R563291027570gxrw,active,1.0,,,AND_Gate,Long,Event,Top,Long,node14
6,48623.99999999988,"img/chain_R.png,img/chain_RM.gif",,causal-graph1,19,620841,0.0-13.0,male,34,english,United States of America,Right,R563291027570gxrw,active,1.0,,,Chain,Medium,,,,node7
6,143449.00000000055,"img/branch_RE.png,img/branch_RTME3.gif",,causal-graph1,20,765729,0.0-14.0,male,34,english,United States of America,Right,R563291027570gxrw,active,1.0,,,AND_Gate,Medium,Event,Top,Long,node14
6,13176.99999999965,"img/branch_RTSS.png,img/branch_RTSS.gif",,causal-graph1,21,780924,0.0-15.0,male,34,english,United States of America,Right,R563291027570gxrw,active,1.0,,,AND_Gate,Short,State,Top,,node14
6,14596.000000001397,"img/branch_RE.png,img/branch_RTLE2.gif",,causal-graph1,22,797996,0.0-16.0,male,34,english,United States of America,Right,R563291027570gxrw,active,1.0,,,AND_Gate,Long,Event,Top,Medium,node7
6,4620.000000002561,img/inst_9.png,0.0,image-button-response,23,802620,0.0-17.0,male,34,english,United States of America,Right,R563291027570gxrw,,,,,,,,,,
6,14840.000000000233,,,survey-text,24,817490,0.0-18.0,male,34,english,United States of America,Right,R563291027570gxrw,,,"{""Q0"":""very nice study""}",,,,,,,
7,40609.00000000035,img/inst_1.png,0.0,image-button-response,0,40614,0.0-0.0-0.0,male,30,English,United States of America,Left,R564578077900gxrw,,,,,,,,,,
7,,img/inst_2L.png,,causal-graph1,1,43903,0.0-0.0-1.0,male,30,English,United States of America,Left,R564578077900gxrw,inactive,,,,,,,,,
7,,"img/inst_3L.png,img/inst_3L.gif",,causal-graph1,2,54496,0.0-0.0-2.0,male,30,English,United States of America,Left,R564578077900gxrw,inactive,1.0,,,,,,,,
7,,img/inst_4L.png,,causal-graph1,3,56382,0.0-0.0-3.0,male,30,English,United States of America,Left,R564578077900gxrw,inactive,,,,,,,,,
7,,"img/inst_5L.png,img/inst_5LT.gif",,causal-graph1,4,70625,0.0-0.0-4.0,male,30,English,United States of America,Left,R564578077900gxrw,inactive,1.0,,,,,,,,
7,1657.9999999998834,img/inst_6.png,0.0,image-button-response,5,72288,0.0-0.0-5.0,male,30,English,United States of America,Left,R564578077900gxrw,,,,,,,,,,
7,9801.999999999649,,,survey-multi-choice,6,82110,0.0-0.0-6.0,male,30,English,United States of America,Left,R564578077900gxrw,,,"{""Q0"":"" To find out if the Gauge of Critical Moment (GCM) is activated or not"",""Q1"":"" A GCM is a square marked with a star"",""Q2"":"" A GCM can activate itself at any stage"",""Q3"":"" You should assign a number to every detector in every network""}","[0,1,2,3]",,,,,,
7,2941.0000000002333,img/inst_7.png,0.0,image-button-response,7,85055,0.0-0.0-7.0-0.0,male,30,English,United States of America,Left,R564578077900gxrw,,,,,,,,,,
7,1166.0000000002326,img/inst_1.png,0.0,image-button-response,8,86226,0.0-0.1-0.1,male,30,English,United States of America,Left,R564578077900gxrw,,,,,,,,,,
7,,img/inst_2L.png,,causal-graph1,9,90391,0.0-0.1-1.1,male,30,English,United States of America,Left,R564578077900gxrw,inactive,,,,,,,,,
7,,"img/inst_3L.png,img/inst_3L.gif",,causal-graph1,10,100612,0.0-0.1-2.1,male,30,English,United States of America,Left,R564578077900gxrw,inactive,1.0,,,,,,,,
7,,img/inst_4L.png,,causal-graph1,11,102246,0.0-0.1-3.1,male,30,English,United States of America,Left,R564578077900gxrw,inactive,,,,,,,,,
7,,"img/inst_5L.png,img/inst_5LT.gif",,causal-graph1,12,117223,0.0-0.1-4.1,male,30,English,United States of America,Left,R564578077900gxrw,inactive,1.0,,,,,,,,
7,1648.0000000001166,img/inst_6.png,0.0,image-button-response,13,118874,0.0-0.1-5.1,male,30,English,United States of America,Left,R564578077900gxrw,,,,,,,,,,
7,2220546.0,,,survey-multi-choice,14,2339424,0.0-0.1-6.1,male,30,English,United States of America,Left,R564578077900gxrw,,,"{""Q0"":"" To decide what caused the activation of the GCM"",""Q1"":"" A GCM is a square marked with a star"",""Q2"":"" A GCM becomes active if all of its inputs are active"",""Q3"":"" You should click on just one detector in each network""}","[0,1,2,3]",,,,,,
7,2960.0,img/inst_8.png,0.0,image-button-response,15,2342392,0.0-1.0,male,30,English,United States of America,Left,R564578077900gxrw,,,,,,,,,,
7,29129.0,"img/branch_LE.png,img/branch_LBLE2.gif",,causal-graph1,16,2376305,0.0-2.0,male,30,English,United States of America,Left,R564578077900gxrw,active,1.0,,,AND_Gate,Long,Event,Bottom,Medium,node8
7,69795.99999999907,"img/branch_LBSS.png,img/branch_LBSS.gif",,causal-graph1,17,2451072,0.0-3.0,male,30,English,United States of America,Left,R564578077900gxrw,active,1.0,,,AND_Gate,Short,State,Bottom,,node4
7,11034.000000000933,"img/branch_LE.png,img/branch_LBSE2.gif",,causal-graph1,18,2468371,0.0-4.0,male,30,English,United States of America,Left,R564578077900gxrw,active,1.0,,,AND_Gate,Short,Event,Bottom,Medium,node10
7,19809.000000000466,"img/chain_L.png,img/chain_LS.gif",,causal-graph1,19,2491101,0.0-5.0,male,30,English,United States of America,Left,R564578077900gxrw,active,1.0,,,Chain,Short,,,,node6
7,46838.0,"img/branch_LE.png,img/branch_LBME1.gif",,causal-graph1,20,2541381,0.0-6.0,male,30,English,United States of America,Left,R564578077900gxrw,active,1.0,,,AND_Gate,Medium,Event,Bottom,Short,node4
7,79734.00000000048,"img/branch_LTMS.png,img/branch_LTMS.gif",,causal-graph1,21,2626085,0.0-7.0,male,30,English,United States of America,Left,R564578077900gxrw,active,1.0,,,AND_Gate,Medium,State,Top,,node4
7,21089.0,"img/branch_LE.png,img/branch_LBME2.gif",,causal-graph1,22,2650341,0.0-8.0,male,30,English,United States of America,Left,R564578077900gxrw,active,1.0,,,AND_Gate,Medium,Event,Bottom,Medium,node4
7,164645.00000000047,"img/branch_LE.png,img/branch_LBLE3.gif",,causal-graph1,23,2820836,0.0-9.0,male,30,English,United States of America,Left,R564578077900gxrw,active,1.0,,,AND_Gate,Long,Event,Bottom,Long,node2
7,19232.0,"img/branch_LE.png,img/branch_LBLE1.gif",,causal-graph1,24,2844238,0.0-10.0,male,30,English,United States of America,Left,R564578077900gxrw,active,1.0,,,AND_Gate,Long,Event,Bottom,Short,node2
7,9639.999999999069,"img/branch_LTLS.png,img/branch_LTLS.gif",,causal-graph1,25,2857396,0.0-11.0,male,30,English,United States of America,Left,R564578077900gxrw,active,1.0,,,AND_Gate,Long,State,Top,,node2
7,14616.0,"img/branch_LE.png,img/branch_LBME3.gif",,causal-graph1,26,2875929,0.0-12.0,male,30,English,United States of America,Left,R564578077900gxrw,active,1.0,,,AND_Gate,Medium,Event,Bottom,Long,node3
7,9718.0,"img/chain_L.png,img/chain_LM.gif",,causal-graph1,27,2888588,0.0-13.0,male,30,English,United States of America,Left,R564578077900gxrw,active,1.0,,,Chain,Medium,,,,node4
7,16263.0,"img/branch_LE.png,img/branch_LTSE3.gif",,causal-graph1,28,2912436,0.0-14.0,male,30,English,United States of America,Left,R564578077900gxrw,active,1.0,,,AND_Gate,Short,Event,Top,Long,node6
7,22523.99999999953,"img/chain_L.png,img/chain_LL.gif",,causal-graph1,29,2937882,0.0-15.0,male,30,English,United States of America,Left,R564578077900gxrw,active,1.0,,,Chain,Long,,,,node2
7,20087.000000000466,"img/branch_LE.png,img/branch_LTSE1.gif",,causal-graph1,30,2962911,0.0-16.0,male,30,English,United States of America,Left,R564578077900gxrw,active,1.0,,,AND_Gate,Short,Event,Top,Short,node6
7,3090.0000000004657,img/inst_9.png,0.0,image-button-response,31,2966006,0.0-17.0,male,30,English,United States of America,Left,R564578077900gxrw,,,,,,,,,,
7,9808.0,,,survey-text,32,2975873,0.0-18.0,male,30,English,United States of America,Left,R564578077900gxrw,,,"{""Q0"":""this is very very good study""}",,,,,,,
8,6356.000000028871,img/inst_1.png,0.0,image-button-response,0,6368,0.0-0.0-0.0,male,26,English,United States of America,Left,R563823157740gxrw,,,,,,,,,,
8,,img/inst_2L.png,,causal-graph1,1,13706,0.0-0.0-1.0,male,26,English,United States of America,Left,R563823157740gxrw,inactive,,,,,,,,,
8,,"img/inst_3L.png,img/inst_3L.gif",,causal-graph1,2,49677,0.0-0.0-2.0,male,26,English,United States of America,Left,R563823157740gxrw,inactive,1.0,,,,,,,,
8,,img/inst_4L.png,,causal-graph1,3,65917,0.0-0.0-3.0,male,26,English,United States of America,Left,R563823157740gxrw,inactive,,,,,,,,,
8,,"img/inst_5L.png,img/inst_5LT.gif",,causal-graph1,4,103504,0.0-0.0-4.0,male,26,English,United States of America,Left,R563823157740gxrw,inactive,1.0,,,,,,,,
8,16220.000000088477,img/inst_6.png,0.0,image-button-response,5,119729,0.0-0.0-5.0,male,26,English,United States of America,Left,R563823157740gxrw,,,,,,,,,,
8,51680.99999998231,,,survey-multi-choice,6,171418,0.0-0.0-6.0,male,26,English,United States of America,Left,R563823157740gxrw,,,"{""Q0"":"" To decide what caused the activation of the GCM"",""Q1"":"" A GCM is a square marked with a star"",""Q2"":"" A GCM becomes active if at least one of its inputs is active"",""Q3"":"" You should click on just one detector in each network""}","[0,1,2,3]",,,,,,
8,3353.000000002794,img/inst_7.png,0.0,image-button-response,7,174778,0.0-0.0-7.0-0.0,male,26,English,United States of America,Left,R563823157740gxrw,,,,,,,,,,
8,5148.9999999757865,img/inst_1.png,0.0,image-button-response,8,179939,0.0-0.1-0.1,male,26,English,United States of America,Left,R563823157740gxrw,,,,,,,,,,
8,,img/inst_2L.png,,causal-graph1,9,184615,0.0-0.1-1.1,male,26,English,United States of America,Left,R563823157740gxrw,inactive,,,,,,,,,
8,,"img/inst_3L.png,img/inst_3L.gif",,causal-graph1,10,202030,0.0-0.1-2.1,male,26,English,United States of America,Left,R563823157740gxrw,inactive,1.0,,,,,,,,
8,,img/inst_4L.png,,causal-graph1,11,238980,0.0-0.1-3.1,male,26,English,United States of America,Left,R563823157740gxrw,inactive,,,,,,,,,
8,,"img/inst_5L.png,img/inst_5LT.gif",,causal-graph1,12,261819,0.0-0.1-4.1,male,26,English,United States of America,Left,R563823157740gxrw,inactive,1.0,,,,,,,,
8,21359.000000054948,img/inst_6.png,0.0,image-button-response,13,283180,0.0-0.1-5.1,male,26,English,United States of America,Left,R563823157740gxrw,,,,,,,,,,
8,39346.00000001956,,,survey-multi-choice,14,322532,0.0-0.1-6.1,male,26,English,United States of America,Left,R563823157740gxrw,,,"{""Q0"":"" To decide what caused the activation of the GCM"",""Q1"":"" A GCM is a square marked with a star"",""Q2"":"" A GCM becomes active if all of its inputs are active"",""Q3"":"" You should click on just one detector in each network""}","[0,1,2,3]",,,,,,
8,3360.000000102445,img/inst_8.png,0.0,image-button-response,15,325903,0.0-1.0,male,26,English,United States of America,Left,R563823157740gxrw,,,,,,,,,,
8,17856.00000002887,"img/branch_LE.png,img/branch_LBSE1.gif",,causal-graph1,16,349773,0.0-2.0,male,26,English,United States of America,Left,R563823157740gxrw,active,1.0,,,AND_Gate,Short,Event,Bottom,Short,node14
8,11675.000000046564,"img/branch_LE.png,img/branch_LBSE2.gif",,causal-graph1,17,363969,0.0-3.0,male,26,English,United States of America,Left,R563823157740gxrw,active,1.0,,,AND_Gate,Short,Event,Bottom,Medium,node7
8,11920.00000004191,"img/branch_LTLS.png,img/branch_LTLS.gif",,causal-graph1,18,385370,0.0-4.0,male,26,English,United States of America,Left,R563823157740gxrw,active,1.0,,,AND_Gate,Long,State,Top,,node10
8,12667.000000015832,"img/branch_LE.png,img/branch_LTME1.gif",,causal-graph1,19,402892,0.0-5.0,male,26,English,United States of America,Left,R563823157740gxrw,active,1.0,,,AND_Gate,Medium,Event,Top,Short,node5
8,8508.000000030734,"img/branch_LBSS.png,img/branch_LBSS.gif",,causal-graph1,20,414294,0.0-6.0,male,26,English,United States of America,Left,R563823157740gxrw,active,1.0,,,AND_Gate,Short,State,Bottom,,node14
8,9516.99999999255,"img/branch_LBMS.png,img/branch_LBMS.gif",,causal-graph1,21,424990,0.0-7.0,male,26,English,United States of America,Left,R563823157740gxrw,active,1.0,,,AND_Gate,Medium,State,Bottom,,node12
8,8273.000000044703,"img/chain_L.png,img/chain_LS.gif",,causal-graph1,22,435519,0.0-8.0,male,26,English,United States of America,Left,R563823157740gxrw,active,1.0,,,Chain,Short,,,,node7
8,13707.999999984168,"img/branch_LE.png,img/branch_LBLE1.gif",,causal-graph1,23,450958,0.0-9.0,male,26,English,United States of America,Left,R563823157740gxrw,active,1.0,,,AND_Gate,Long,Event,Bottom,Short,node10
8,15869.999999995343,"img/branch_LE.png,img/branch_LBME3.gif",,causal-graph1,24,468920,0.0-10.0,male,26,English,United States of America,Left,R563823157740gxrw,active,1.0,,,AND_Gate,Medium,Event,Bottom,Long,node12
8,12430.000000051223,"img/branch_LE.png,img/branch_LTME2.gif",,causal-graph1,25,484639,0.0-11.0,male,26,English,United States of America,Left,R563823157740gxrw,active,1.0,,,AND_Gate,Medium,Event,Top,Medium,node5
8,10729.000000050291,"img/chain_L.png,img/chain_LL.gif",,causal-graph1,26,497396,0.0-12.0,male,26,English,United States of America,Left,R563823157740gxrw,active,1.0,,,Chain,Long,,,,node3
8,20043.99999999441,"img/branch_LE.png,img/branch_LTLE3.gif",,causal-graph1,27,518893,0.0-13.0,male,26,English,United States of America,Left,R563823157740gxrw,active,1.0,,,AND_Gate,Long,Event,Top,Long,node3
8,9285.999999963678,"img/chain_L.png,img/chain_LM.gif",,causal-graph1,28,530179,0.0-14.0,male,26,English,United States of America,Left,R563823157740gxrw,active,1.0,,,Chain,Medium,,,,node5
8,15468.999999924563,"img/branch_LE.png,img/branch_LTLE2.gif",,causal-graph1,29,547143,0.0-15.0,male,26,English,United States of America,Left,R563823157740gxrw,active,1.0,,,AND_Gate,Long,Event,Top,Medium,node3
8,16339.000000036322,"img/branch_LE.png,img/branch_LBSE3.gif",,causal-graph1,30,577069,0.0-16.0,male,26,English,United States of America,Left,R563823157740gxrw,active,1.0,,,AND_Gate,Short,Event,Bottom,Long,node14
8,3224.999999976717,img/inst_9.png,0.0,image-button-response,31,580300,0.0-17.0,male,26,English,United States of America,Left,R563823157740gxrw,,,,,,,,,,
8,2021.999999997206,,,survey-text,32,582368,0.0-18.0,male,26,English,United States of America,Left,R563823157740gxrw,,,"{""Q0"":""""}",,,,,,,
9,5076.999999999316,img/inst_1.png,0.0,image-button-response,0,5117,0.0-0.0-0.0,male,30,English,United States of America,Left,R563954487180gxrw,,,,,,,,,,
9,,img/inst_2L.png,,causal-graph1,1,11508,0.0-0.0-1.0,male,30,English,United States of America,Left,R563954487180gxrw,inactive,,,,,,,,,
9,,"img/inst_3L.png,img/inst_3L.gif",,causal-graph1,2,24270,0.0-0.0-2.0,male,30,English,United States of America,Left,R563954487180gxrw,inactive,1.0,,,,,,,,
9,,img/inst_4L.png,,causal-graph1,3,26326,0.0-0.0-3.0,male,30,English,United States of America,Left,R563954487180gxrw,inactive,,,,,,,,,
9,,"img/inst_5L.png,img/inst_5LT.gif",,causal-graph1,4,150603,0.0-0.0-4.0,male,30,English,United States of America,Left,R563954487180gxrw,inactive,2.0,,,,,,,,
9,1943.000000001106,img/inst_6.png,0.0,image-button-response,5,152551,0.0-0.0-5.0,male,30,English,United States of America,Left,R563954487180gxrw,,,,,,,,,,
9,16898.999999999418,,,survey-multi-choice,6,169458,0.0-0.0-6.0,male,30,English,United States of America,Left,R563954487180gxrw,,,"{""Q0"":"" To decide what caused the activation of the GCM"",""Q1"":"" A GCM is a square marked with a star"",""Q2"":"" A GCM becomes active if all of its inputs are active"",""Q3"":"" You should click on just one detector in each network""}","[0,1,2,3]",,,,,,
9,3506.999999999592,img/inst_8.png,0.0,image-button-response,7,172965,0.0-1.0,male,30,English,United States of America,Left,R563954487180gxrw,,,,,,,,,,
9,22913.000000000466,"img/branch_LE.png,img/branch_LTME1.gif",,causal-graph1,8,217123,0.0-2.0,male,30,English,United States of America,Left,R563954487180gxrw,active,2.0,,,AND_Gate,Medium,Event,Top,Short,node12
9,15936.999999999884,"img/branch_LE.png,img/branch_LTME2.gif",,causal-graph1,9,236631,0.0-3.0,male,30,English,United States of America,Left,R563954487180gxrw,active,1.0,,,AND_Gate,Medium,Event,Top,Medium,node15
9,11404.999999998836,"img/chain_L.png,img/chain_LM.gif",,causal-graph1,10,278563,0.0-4.0,male,30,English,United States of America,Left,R563954487180gxrw,active,2.0,,,Chain,Medium,,,,node6
9,16958.000000000524,"img/branch_LE.png,img/branch_LBME3.gif",,causal-graph1,11,299121,0.0-5.0,male,30,English,United States of America,Left,R563954487180gxrw,active,1.0,,,AND_Gate,Medium,Event,Bottom,Long,node13
9,14470.999999999534,"img/branch_LE.png,img/branch_LBLE1.gif",,causal-graph1,12,329626,0.0-6.0,male,30,English,United States of America,Left,R563954487180gxrw,active,2.0,,,AND_Gate,Long,Event,Bottom,Short,node15
9,12784.999999999884,"img/branch_LBSS.png,img/branch_LBSS.gif",,causal-graph1,13,348408,0.0-7.0,male,30,English,United States of America,Left,R563954487180gxrw,active,1.0,,,AND_Gate,Short,State,Bottom,,node15
9,14788.999999998836,"img/branch_LE.png,img/branch_LBSE2.gif",,causal-graph1,14,366775,0.0-8.0,male,30,English,United States of America,Left,R563954487180gxrw,active,1.0,,,AND_Gate,Short,Event,Bottom,Medium,node14
9,18784.999999999767,"img/branch_LE.png,img/branch_LTLE2.gif",,causal-graph1,15,443483,0.0-9.0,male,30,English,United States of America,Left,R563954487180gxrw,active,2.0,,,AND_Gate,Long,Event,Top,Medium,node6
9,11819.000000001279,"img/branch_LTLS.png,img/branch_LTLS.gif",,causal-graph1,16,459632,0.0-10.0,male,30,English,United States of America,Left,R563954487180gxrw,active,1.0,,,AND_Gate,Long,State,Top,,node13
9,12189.00000000035,"img/branch_LE.png,img/branch_LBSE1.gif",,causal-graph1,17,476391,0.0-11.0,male,30,English,United States of America,Left,R563954487180gxrw,active,1.0,,,AND_Gate,Short,Event,Bottom,Short,node15
9,17100.00000000035,"img/branch_LE.png,img/branch_LBSE3.gif",,causal-graph1,18,496569,0.0-12.0,male,30,English,United States of America,Left,R563954487180gxrw,active,1.0,,,AND_Gate,Short,Event,Bottom,Long,node14
9,10323.000000000351,"img/chain_L.png,img/chain_LL.gif",,causal-graph1,19,510525,0.0-13.0,male,30,English,United States of America,Left,R563954487180gxrw,active,1.0,,,Chain,Long,,,,node6
9,18201.999999999298,"img/branch_LE.png,img/branch_LBLE3.gif",,causal-graph1,20,533631,0.0-14.0,male,30,English,United States of America,Left,R563954487180gxrw,active,1.0,,,AND_Gate,Long,Event,Bottom,Long,node14
9,12381.99999999965,"img/branch_LBMS.png,img/branch_LBMS.gif",,causal-graph1,21,548530,0.0-15.0,male,30,English,United States of America,Left,R563954487180gxrw,active,1.0,,,AND_Gate,Medium,State,Bottom,,node13
9,9620.000000000815,"img/chain_L.png,img/chain_LS.gif",,causal-graph1,22,561498,0.0-16.0,male,30,English,United States of America,Left,R563954487180gxrw,active,1.0,,,Chain,Short,,,,node7
9,2833.9999999989527,img/inst_9.png,0.0,image-button-response,23,564336,0.0-17.0,male,30,English,United States of America,Left,R563954487180gxrw,,,,,,,,,,
9,49149.99999999965,,,survey-text,24,613538,0.0-18.0,male,30,English,United States of America,Left,R563954487180gxrw,,,"{""Q0"":""mabelmartinez713@gmail.com""}",,,,,,,
10,46253.96000000183,img/inst_1.png,0.0,image-button-response,0,46263,0.0-0.0-0.0,male,31,english,American Samoa,Left,R561552147430gxrw,,,,,,,,,,
10,,img/inst_2L.png,,causal-graph1,1,72673,0.0-0.0-1.0,male,31,english,American Samoa,Left,R561552147430gxrw,inactive,,,,,,,,,
10,,"img/inst_3L.png,img/inst_3L.gif",,causal-graph1,2,146503,0.0-0.0-2.0,male,31,english,American Samoa,Left,R561552147430gxrw,inactive,1.0,,,,,,,,
10,,img/inst_4L.png,,causal-graph1,3,174056,0.0-0.0-3.0,male,31,english,American Samoa,Left,R561552147430gxrw,inactive,,,,,,,,,
10,,"img/inst_5L.png,img/inst_5LB.gif",,causal-graph1,4,204468,0.0-0.0-4.0,male,31,english,American Samoa,Left,R561552147430gxrw,inactive,1.0,,,,,,,,
10,38800.93499994837,img/inst_6.png,0.0,image-button-response,5,243270,0.0-0.0-5.0,male,31,english,American Samoa,Left,R561552147430gxrw,,,,,,,,,,
10,103150.86499997416,,,survey-multi-choice,6,346433,0.0-0.0-6.0,male,31,english,American Samoa,Left,R561552147430gxrw,,,"{""Q0"":"" To decide what caused the activation of the GCM"",""Q1"":"" A GCM is a square marked with a star"",""Q2"":"" A GCM becomes active if at least one of its inputs is active"",""Q3"":"" Some detectors are not clickable""}","[0,1,2,3]",,,,,,
10,8316.594999982044,img/inst_7.png,0.0,image-button-response,7,354751,0.0-0.0-7.0-0.0,male,31,english,American Samoa,Left,R561552147430gxrw,,,,,,,,,,
10,9076.85500010848,img/inst_1.png,0.0,image-button-response,8,363831,0.0-0.1-0.1,male,31,english,American Samoa,Left,R561552147430gxrw,,,,,,,,,,
10,,img/inst_2L.png,,causal-graph1,9,384224,0.0-0.1-1.1,male,31,english,American Samoa,Left,R561552147430gxrw,inactive,,,,,,,,,
10,,"img/inst_3L.png,img/inst_3L.gif",,causal-graph1,10,403243,0.0-0.1-2.1,male,31,english,American Samoa,Left,R561552147430gxrw,inactive,1.0,,,,,,,,
10,,img/inst_4L.png,,causal-graph1,11,420937,0.0-0.1-3.1,male,31,english,American Samoa,Left,R561552147430gxrw,inactive,,,,,,,,,
10,,"img/inst_5L.png,img/inst_5LB.gif",,causal-graph1,12,456053,0.0-0.1-4.1,male,31,english,American Samoa,Left,R561552147430gxrw,inactive,1.0,,,,,,,,
10,27386.230000061914,img/inst_6.png,0.0,image-button-response,13,483441,0.0-0.1-5.1,male,31,english,American Samoa,Left,R561552147430gxrw,,,,,,,,,,
10,49730.115000042126,,,survey-multi-choice,14,533177,0.0-0.1-6.1,male,31,english,American Samoa,Left,R561552147430gxrw,,,"{""Q0"":"" To decide what caused the activation of the GCM"",""Q1"":"" A GCM is a square marked with a star"",""Q2"":"" A GCM becomes active if all of its inputs are active"",""Q3"":"" Some detectors are not clickable""}","[0,1,2,3]",,,,,,
10,7056.9200000027195,img/inst_7.png,0.0,image-button-response,15,540236,0.0-0.1-7.1-0.1,male,31,english,American Samoa,Left,R561552147430gxrw,,,,,,,,,,
10,2598.340000025928,img/inst_1.png,0.0,image-button-response,16,542836,0.0-0.2-0.2,male,31,english,American Samoa,Left,R561552147430gxrw,,,,,,,,,,
10,,img/inst_2L.png,,causal-graph1,17,545192,0.0-0.2-1.2,male,31,english,American Samoa,Left,R561552147430gxrw,inactive,,,,,,,,,
10,,"img/inst_3L.png,img/inst_3L.gif",,causal-graph1,18,553136,0.0-0.2-2.2,male,31,english,American Samoa,Left,R561552147430gxrw,inactive,1.0,,,,,,,,
10,,img/inst_4L.png,,causal-graph1,19,555395,0.0-0.2-3.2,male,31,english,American Samoa,Left,R561552147430gxrw,inactive,,,,,,,,,
10,,"img/inst_5L.png,img/inst_5LB.gif",,causal-graph1,20,595742,0.0-0.2-4.2,male,31,english,American Samoa,Left,R561552147430gxrw,inactive,1.0,,,,,,,,
10,3048.304999945685,img/inst_6.png,0.0,image-button-response,21,598792,0.0-0.2-5.2,male,31,english,American Samoa,Left,R561552147430gxrw,,,,,,,,,,
10,141027.38500002306,,,survey-multi-choice,22,739831,0.0-0.2-6.2,male,31,english,American Samoa,Left,R561552147430gxrw,,,"{""Q0"":"" To decide what caused the activation of the GCM"",""Q1"":"" A GCM is a square marked with a star"",""Q2"":"" A GCM becomes active if all of its inputs are active"",""Q3"":"" You should assign a number to every detector in every network""}","[0,1,2,3]",,,,,,
10,18448.66499991622,img/inst_7.png,0.0,image-button-response,23,758282,0.0-0.2-7.2-0.2,male,31,english,American Samoa,Left,R561552147430gxrw,,,,,,,,,,
10,6957.784999976867,img/inst_1.png,0.0,image-button-response,24,765245,0.0-0.3-0.3,male,31,english,American Samoa,Left,R561552147430gxrw,,,,,,,,,,
10,,img/inst_2L.png,,causal-graph1,25,772344,0.0-0.3-1.3,male,31,english,American Samoa,Left,R561552147430gxrw,inactive,,,,,,,,,
10,,"img/inst_3L.png,img/inst_3L.gif",,causal-graph1,26,786144,0.0-0.3-2.3,male,31,english,American Samoa,Left,R561552147430gxrw,inactive,1.0,,,,,,,,
10,,img/inst_4L.png,,causal-graph1,27,788363,0.0-0.3-3.3,male,31,english,American Samoa,Left,R561552147430gxrw,inactive,,,,,,,,,
10,,"img/inst_5L.png,img/inst_5LB.gif",,causal-graph1,28,804206,0.0-0.3-4.3,male,31,english,American Samoa,Left,R561552147430gxrw,inactive,1.0,,,,,,,,
10,2597.895000013523,img/inst_6.png,0.0,image-button-response,29,806806,0.0-0.3-5.3,male,31,english,American Samoa,Left,R561552147430gxrw,,,,,,,,,,
10,25614.324999973174,,,survey-multi-choice,30,832426,0.0-0.3-6.3,male,31,english,American Samoa,Left,R561552147430gxrw,,,"{""Q0"":"" To decide what caused the activation of the GCM"",""Q1"":"" A GCM is a square marked with a star"",""Q2"":"" A GCM becomes active if all of its inputs are active"",""Q3"":"" You should click on just one detector in each network""}","[0,1,2,3]",,,,,,
10,13296.394999953918,img/inst_8.png,0.0,image-button-response,31,845725,0.0-1.0,male,31,english,American Samoa,Left,R561552147430gxrw,,,,,,,,,,
10,45860.60999997426,"img/branch_LE.png,img/branch_LBSE2.gif",,causal-graph1,32,905819,0.0-2.0,male,31,english,American Samoa,Left,R561552147430gxrw,active,1.0,,,AND_Gate,Short,Event,Bottom,Medium,node7
10,29238.614999921992,"img/branch_LTMS.png,img/branch_LTMS.gif",,causal-graph1,33,943864,0.0-3.0,male,31,english,American Samoa,Left,R561552147430gxrw,active,1.0,,,AND_Gate,Medium,State,Top,,node11
10,22099.57000007853,"img/chain_L.png,img/chain_LM.gif",,causal-graph1,34,970957,0.0-4.0,male,31,english,American Samoa,Left,R561552147430gxrw,active,1.0,,,Chain,Medium,,,,node5
10,25484.799999976534,"img/branch_LE.png,img/branch_LTLE3.gif",,causal-graph1,35,999970,0.0-5.0,male,31,english,American Samoa,Left,R561552147430gxrw,active,1.0,,,AND_Gate,Long,Event,Top,Long,node3
10,18775.30000009574,"img/branch_LTSS.png,img/branch_LTSS.gif",,causal-graph1,36,1026717,0.0-6.0,male,31,english,American Samoa,Left,R561552147430gxrw,active,1.0,,,AND_Gate,Short,State,Top,,node15
10,15787.424999987708,"img/chain_L.png,img/chain_LS.gif",,causal-graph1,37,1046086,0.0-7.0,male,31,english,American Samoa,Left,R561552147430gxrw,active,1.0,,,Chain,Short,,,,node8
10,15331.355000031182,"img/branch_LE.png,img/branch_LTLE1.gif",,causal-graph1,38,1064933,0.0-8.0,male,31,english,American Samoa,Left,R561552147430gxrw,active,1.0,,,AND_Gate,Long,Event,Top,Short,node15
10,16274.259999976492,"img/branch_LE.png,img/branch_LTME2.gif",,causal-graph1,39,1086702,0.0-9.0,male,31,english,American Samoa,Left,R561552147430gxrw,active,1.0,,,AND_Gate,Medium,Event,Top,Medium,node15
10,46689.70500002615,"img/branch_LE.png,img/branch_LTME1.gif",,causal-graph1,40,1137844,0.0-10.0,male,31,english,American Samoa,Left,R561552147430gxrw,active,1.0,,,AND_Gate,Medium,Event,Top,Short,node15
10,17065.094999969006,"img/chain_L.png,img/chain_LL.gif",,causal-graph1,41,1159442,0.0-11.0,male,31,english,American Samoa,Left,R561552147430gxrw,active,1.0,,,Chain,Long,,,,node8
10,17271.840000059456,"img/branch_LE.png,img/branch_LBME3.gif",,causal-graph1,42,1180276,0.0-12.0,male,31,english,American Samoa,Left,R561552147430gxrw,active,1.0,,,AND_Gate,Medium,Event,Bottom,Long,node15
10,10692.504999926314,"img/branch_LE.png,img/branch_LBSE1.gif",,causal-graph1,43,1193985,0.0-13.0,male,31,english,American Samoa,Left,R561552147430gxrw,active,1.0,,,AND_Gate,Short,Event,Bottom,Short,node15
10,15507.589999935592,"img/branch_LE.png,img/branch_LTSE3.gif",,causal-graph1,44,1220268,0.0-14.0,male,31,english,American Samoa,Left,R561552147430gxrw,active,1.0,,,AND_Gate,Short,Event,Top,Long,node15
10,15075.50000003539,"img/branch_LE.png,img/branch_LTLE2.gif",,causal-graph1,45,1238706,0.0-15.0,male,31,english,American Samoa,Left,R561552147430gxrw,active,1.0,,,AND_Gate,Long,Event,Top,Medium,node15
10,13086.145000066608,"img/branch_LBLS.png,img/branch_LBLS.gif",,causal-graph1,46,1259549,0.0-16.0,male,31,english,American Samoa,Left,R561552147430gxrw,active,1.0,,,AND_Gate,Long,State,Bottom,,node15
10,5672.9649999178955,img/inst_9.png,0.0,image-button-response,47,1265224,0.0-17.0,male,31,english,American Samoa,Left,R561552147430gxrw,,,,,,,,,,
10,103992.65999998896,,,survey-text,48,1369232,0.0-18.0,male,31,english,American Samoa,Left,R561552147430gxrw,,,"{""Q0"":""good""}",,,,,,,
11,4177.960000000894,img/inst_1.png,0.0,image-button-response,0,4184,0.0-0.0-0.0,male,57,ENGLISH,United States of America,Left,R568544927460gxrw,,,,,,,,,,
11,,img/inst_2L.png,,causal-graph1,1,17451,0.0-0.0-1.0,male,57,ENGLISH,United States of America,Left,R568544927460gxrw,inactive,,,,,,,,,
11,,"img/inst_3L.png,img/inst_3L.gif",,causal-graph1,2,49633,0.0-0.0-2.0,male,57,ENGLISH,United States of America,Left,R568544927460gxrw,inactive,1.0,,,,,,,,
11,,img/inst_4L.png,,causal-graph1,3,53092,0.0-0.0-3.0,male,57,ENGLISH,United States of America,Left,R568544927460gxrw,inactive,,,,,,,,,
11,,"img/inst_5L.png,img/inst_5LT.gif",,causal-graph1,4,82282,0.0-0.0-4.0,male,57,ENGLISH,United States of America,Left,R568544927460gxrw,inactive,1.0,,,,,,,,
11,11088.69499992579,img/inst_6.png,0.0,image-button-response,5,93372,0.0-0.0-5.0,male,57,ENGLISH,United States of America,Left,R568544927460gxrw,,,,,,,,,,
11,886264.2299998552,,,survey-multi-choice,6,979619,0.0-0.0-6.0,male,57,ENGLISH,United States of America,Left,R568544927460gxrw,,,"{""Q0"":"" To decide what caused the activation of the GCM"",""Q1"":"" A GCM is a square marked with a star"",""Q2"":"" A GCM becomes active if all of its inputs are active"",""Q3"":"" You should click on just one detector in each network""}","[0,1,2,3]",,,,,,
11,3826.059999875724,img/inst_8.png,0.0,image-button-response,7,983448,0.0-1.0,male,57,ENGLISH,United States of America,Left,R568544927460gxrw,,,,,,,,,,
11,79525.93000000343,"img/branch_LTLS.png,img/branch_LTLS.gif",,causal-graph1,8,1066188,0.0-2.0,male,57,ENGLISH,United States of America,Left,R568544927460gxrw,active,1.0,,,AND_Gate,Long,State,Top,,node10
11,29967.63500012457,"img/branch_LE.png,img/branch_LBME3.gif",,causal-graph1,9,1108270,0.0-3.0,male,57,ENGLISH,United States of America,Left,R568544927460gxrw,active,1.0,,,AND_Gate,Medium,Event,Bottom,Long,node12
11,21986.945000011478,"img/branch_LE.png,img/branch_LTME1.gif",,causal-graph1,10,1133248,0.0-4.0,male,57,ENGLISH,United States of America,Left,R568544927460gxrw,active,1.0,,,AND_Gate,Medium,Event,Top,Short,node6
11,21802.154999924824,"img/branch_LE.png,img/branch_LTME2.gif",,causal-graph1,11,1159820,0.0-5.0,male,57,ENGLISH,United States of America,Left,R568544927460gxrw,active,1.0,,,AND_Gate,Medium,Event,Top,Medium,node5
11,24249.370000092313,"img/branch_LE.png,img/branch_LTSE2.gif",,causal-graph1,12,1188128,0.0-6.0,male,57,ENGLISH,United States of America,Left,R568544927460gxrw,active,1.0,,,AND_Gate,Short,Event,Top,Medium,node5
11,38789.61999993771,"img/branch_LE.png,img/branch_LTLE3.gif",,causal-graph1,13,1230738,0.0-7.0,male,57,ENGLISH,United States of America,Left,R568544927460gxrw,active,1.0,,,AND_Gate,Long,Event,Top,Long,node4
11,16425.775000127032,"img/branch_LE.png,img/branch_LBLE2.gif",,causal-graph1,14,1251576,0.0-8.0,male,57,ENGLISH,United States of America,Left,R568544927460gxrw,active,1.0,,,AND_Gate,Long,Event,Bottom,Medium,node3
11,12091.345000080764,"img/branch_LE.png,img/branch_LTSE1.gif",,causal-graph1,15,1272479,0.0-9.0,male,57,ENGLISH,United States of America,Left,R568544927460gxrw,active,1.0,,,AND_Gate,Short,Event,Top,Short,node12
11,14626.285000005735,"img/branch_LE.png,img/branch_LTLE1.gif",,causal-graph1,16,1289839,0.0-10.0,male,57,ENGLISH,United States of America,Left,R568544927460gxrw,active,1.0,,,AND_Gate,Long,Event,Top,Short,node11
11,25281.335000181567,"img/branch_LE.png,img/branch_LTSE3.gif",,causal-graph1,17,1333082,0.0-11.0,male,57,ENGLISH,United States of America,Left,R568544927460gxrw,active,1.0,,,AND_Gate,Short,Event,Top,Long,node14
11,9475.43999995105,"img/branch_LTSS.png,img/branch_LTSS.gif",,causal-graph1,18,1345248,0.0-12.0,male,57,ENGLISH,United States of America,Left,R568544927460gxrw,active,1.0,,,AND_Gate,Short,State,Top,,node14
11,10120.224999962376,"img/branch_LBMS.png,img/branch_LBMS.gif",,causal-graph1,19,1359427,0.0-13.0,male,57,ENGLISH,United States of America,Left,R568544927460gxrw,active,1.0,,,AND_Gate,Medium,State,Bottom,,node5
11,18263.125000055883,"img/chain_L.png,img/chain_LL.gif",,causal-graph1,20,1381929,0.0-14.0,male,57,ENGLISH,United States of America,Left,R568544927460gxrw,active,1.0,,,Chain,Long,,,,node4
11,9247.179999947548,"img/chain_L.png,img/chain_LS.gif",,causal-graph1,21,1393834,0.0-15.0,male,57,ENGLISH,United States of America,Left,R568544927460gxrw,active,1.0,,,Chain,Short,,,,node7
11,12110.28499994427,"img/chain_L.png,img/chain_LM.gif",,causal-graph1,22,1409879,0.0-16.0,male,57,ENGLISH,United States of America,Left,R568544927460gxrw,active,1.0,,,Chain,Medium,,,,node5
11,3286.1099999863645,img/inst_9.png,0.0,image-button-response,23,1413169,0.0-17.0,male,57,ENGLISH,United States of America,Left,R568544927460gxrw,,,,,,,,,,
11,24225.22499994375,,,survey-text,24,1437418,0.0-18.0,male,57,ENGLISH,United States of America,Left,R568544927460gxrw,,,"{""Q0"":""GOOD""}",,,,,,,
12,17765.344999963418,img/inst_1.png,0.0,image-button-response,0,17770,0.0-0.0-0.0,female,32,English,United States of America,Right,R562653127930gxrw,,,,,,,,,,
12,,img/inst_2R.png,,causal-graph1,1,27938,0.0-0.0-1.0,female,32,English,United States of America,Right,R562653127930gxrw,inactive,,,,,,,,,
12,,"img/inst_3R.png,img/inst_3R.gif",,causal-graph1,2,62585,0.0-0.0-2.0,female,32,English,United States of America,Right,R562653127930gxrw,inactive,1.0,,,,,,,,
12,,img/inst_4R.png,,causal-graph1,3,71632,0.0-0.0-3.0,female,32,English,United States of America,Right,R562653127930gxrw,inactive,,,,,,,,,
12,,"img/inst_5R.png,img/inst_5RT.gif",,causal-graph1,4,96960,0.0-0.0-4.0,female,32,English,United States of America,Right,R562653127930gxrw,inactive,1.0,,,,,,,,
12,14733.240000088701,img/inst_6.png,0.0,image-button-response,5,111696,0.0-0.0-5.0,female,32,English,United States of America,Right,R562653127930gxrw,,,,,,,,,,
12,60788.180000032306,,,survey-multi-choice,6,172489,0.0-0.0-6.0,female,32,English,United States of America,Right,R562653127930gxrw,,,"{""Q0"":"" To find out if the Gauge of Critical Moment (GCM) is activated or not"",""Q1"":""A GCM is a square without any mark"",""Q2"":"" A GCM becomes active if at least one of its inputs is active"",""Q3"":"" You should click on just one detector in each network""}","[0,1,2,3]",,,,,,
12,5449.485000106506,img/inst_7.png,0.0,image-button-response,7,177942,0.0-0.0-7.0-0.0,female,32,English,United States of America,Right,R562653127930gxrw,,,,,,,,,,
12,6052.320000017062,img/inst_1.png,0.0,image-button-response,8,183997,0.0-0.1-0.1,female,32,English,United States of America,Right,R562653127930gxrw,,,,,,,,,,
12,,img/inst_2R.png,,causal-graph1,9,192397,0.0-0.1-1.1,female,32,English,United States of America,Right,R562653127930gxrw,inactive,,,,,,,,,
12,,"img/inst_3R.png,img/inst_3R.gif",,causal-graph1,10,233741,0.0-0.1-2.1,female,32,English,United States of America,Right,R562653127930gxrw,inactive,1.0,,,,,,,,
12,,img/inst_4R.png,,causal-graph1,11,250924,0.0-0.1-3.1,female,32,English,United States of America,Right,R562653127930gxrw,inactive,,,,,,,,,
12,,"img/inst_5R.png,img/inst_5RT.gif",,causal-graph1,12,281507,0.0-0.1-4.1,female,32,English,United States of America,Right,R562653127930gxrw,inactive,1.0,,,,,,,,
12,11261.290000053124,img/inst_6.png,0.0,image-button-response,13,292772,0.0-0.1-5.1,female,32,English,United States of America,Right,R562653127930gxrw,,,,,,,,,,
12,96828.56499997432,,,survey-multi-choice,14,389605,0.0-0.1-6.1,female,32,English,United States of America,Right,R562653127930gxrw,,,"{""Q0"":"" To find out if the Gauge of Critical Moment (GCM) is activated or not"",""Q1"":"" A GCM is a square marked with a star"",""Q2"":"" A GCM becomes active if all of its inputs are active"",""Q3"":"" You should click on just one detector in each network""}","[0,1,2,3]",,,,,,
12,6704.0250001009545,img/inst_7.png,0.0,image-button-response,15,396314,0.0-0.1-7.1-0.1,female,32,English,United States of America,Right,R562653127930gxrw,,,,,,,,,,
12,19246.09000002965,img/inst_1.png,0.0,image-button-response,16,415562,0.0-0.2-0.2,female,32,English,United States of America,Right,R562653127930gxrw,,,,,,,,,,
12,,img/inst_2R.png,,causal-graph1,17,424626,0.0-0.2-1.2,female,32,English,United States of America,Right,R562653127930gxrw,inactive,,,,,,,,,
12,,"img/inst_3R.png,img/inst_3R.gif",,causal-graph1,18,447233,0.0-0.2-2.2,female,32,English,United States of America,Right,R562653127930gxrw,inactive,1.0,,,,,,,,
12,,img/inst_4R.png,,causal-graph1,19,449401,0.0-0.2-3.2,female,32,English,United States of America,Right,R562653127930gxrw,inactive,,,,,,,,,
12,,"img/inst_5R.png,img/inst_5RT.gif",,causal-graph1,20,467905,0.0-0.2-4.2,female,32,English,United States of America,Right,R562653127930gxrw,inactive,1.0,,,,,,,,
12,2021.085000014864,img/inst_6.png,0.0,image-button-response,21,469928,0.0-0.2-5.2,female,32,English,United States of America,Right,R562653127930gxrw,,,,,,,,,,
12,157156.04500006884,,,survey-multi-choice,22,627088,0.0-0.2-6.2,female,32,English,United States of America,Right,R562653127930gxrw,,,"{""Q0"":"" To decide what causes the activation of each detector"",""Q1"":"" A GCM is a square marked with a star"",""Q2"":"" A GCM becomes active if all of its inputs are active"",""Q3"":"" You should click on just one detector in each network""}","[0,1,2,3]",,,,,,
12,2002.209999947809,img/inst_7.png,0.0,image-button-response,23,629094,0.0-0.2-7.2-0.2,female,32,English,United States of America,Right,R562653127930gxrw,,,,,,,,,,
12,1021.9600000418724,img/inst_1.png,0.0,image-button-response,24,630117,0.0-0.3-0.3,female,32,English,United States of America,Right,R562653127930gxrw,,,,,,,,,,
12,,img/inst_2R.png,,causal-graph1,25,631557,0.0-0.3-1.3,female,32,English,United States of America,Right,R562653127930gxrw,inactive,,,,,,,,,
12,,"img/inst_3R.png,img/inst_3R.gif",,causal-graph1,26,637205,0.0-0.3-2.3,female,32,English,United States of America,Right,R562653127930gxrw,inactive,1.0,,,,,,,,
12,,img/inst_4R.png,,causal-graph1,27,638221,0.0-0.3-3.3,female,32,English,United States of America,Right,R562653127930gxrw,inactive,,,,,,,,,
12,,"img/inst_5R.png,img/inst_5RT.gif",,causal-graph1,28,650437,0.0-0.3-4.3,female,32,English,United States of America,Right,R562653127930gxrw,inactive,1.0,,,,,,,,
12,1046.864999923855,img/inst_6.png,0.0,image-button-response,29,651485,0.0-0.3-5.3,female,32,English,United States of America,Right,R562653127930gxrw,,,,,,,,,,
12,81476.91500000656,,,survey-multi-choice,30,732966,0.0-0.3-6.3,female,32,English,United States of America,Right,R562653127930gxrw,,,"{""Q0"":"" To find out if the Gauge of Critical Moment (GCM) is activated or not"",""Q1"":"" A GCM is a square marked with a star"",""Q2"":"" A GCM becomes active if all of its inputs are active"",""Q3"":"" You should assign a number to every detector in every network""}","[0,1,2,3]",,,,,,
12,1481.9999999599534,img/inst_7.png,0.0,image-button-response,31,734452,0.0-0.3-7.3-0.3,female,32,English,United States of America,Right,R562653127930gxrw,,,,,,,,,,
12,717.8550000535324,img/inst_1.png,0.0,image-button-response,32,735171,0.0-0.4-0.4,female,32,English,United States of America,Right,R562653127930gxrw,,,,,,,,,,
12,,img/inst_2R.png,,causal-graph1,33,736203,0.0-0.4-1.4,female,32,English,United States of America,Right,R562653127930gxrw,inactive,,,,,,,,,
12,,"img/inst_3R.png,img/inst_3R.gif",,causal-graph1,34,742500,0.0-0.4-2.4,female,32,English,United States of America,Right,R562653127930gxrw,inactive,1.0,,,,,,,,
12,,img/inst_4R.png,,causal-graph1,35,743484,0.0-0.4-3.4,female,32,English,United States of America,Right,R562653127930gxrw,inactive,,,,,,,,,
12,,"img/inst_5R.png,img/inst_5RT.gif",,causal-graph1,36,754324,0.0-0.4-4.4,female,32,English,United States of America,Right,R562653127930gxrw,inactive,1.0,,,,,,,,
12,1476.6999999992552,img/inst_6.png,0.0,image-button-response,37,755803,0.0-0.4-5.4,female,32,English,United States of America,Right,R562653127930gxrw,,,,,,,,,,
12,183554.2050000513,,,survey-multi-choice,38,939361,0.0-0.4-6.4,female,32,English,United States of America,Right,R562653127930gxrw,,,"{""Q0"":"" To decide what caused the activation of the GCM"",""Q1"":"" A GCM is a square marked with a star"",""Q2"":"" A GCM becomes active if all of its inputs are active"",""Q3"":"" You should assign a number to every detector in every network""}","[0,1,2,3]",,,,,,
12,2130.669999984093,img/inst_7.png,0.0,image-button-response,39,941495,0.0-0.4-7.4-0.4,female,32,English,United States of America,Right,R562653127930gxrw,,,,,,,,,,
12,1534.734999993816,img/inst_1.png,0.0,image-button-response,40,943032,0.0-0.5-0.5,female,32,English,United States of America,Right,R562653127930gxrw,,,,,,,,,,
12,,img/inst_2R.png,,causal-graph1,41,948055,0.0-0.5-1.5,female,32,English,United States of America,Right,R562653127930gxrw,inactive,,,,,,,,,
12,,"img/inst_3R.png,img/inst_3R.gif",,causal-graph1,42,968655,0.0-0.5-2.5,female,32,English,United States of America,Right,R562653127930gxrw,inactive,1.0,,,,,,,,
12,,img/inst_4R.png,,causal-graph1,43,1017983,0.0-0.5-3.5,female,32,English,United States of America,Right,R562653127930gxrw,inactive,,,,,,,,,
12,,"img/inst_5R.png,img/inst_5RT.gif",,causal-graph1,44,1029678,0.0-0.5-4.5,female,32,English,United States of America,Right,R562653127930gxrw,inactive,1.0,,,,,,,,
12,1454.3249999405814,img/inst_6.png,0.0,image-button-response,45,1031134,0.0-0.5-5.5,female,32,English,United States of America,Right,R562653127930gxrw,,,,,,,,,,
12,76693.56500008142,,,survey-multi-choice,46,1107831,0.0-0.5-6.5,female,32,English,United States of America,Right,R562653127930gxrw,,,"{""Q0"":"" To find out if the Gauge of Critical Moment (GCM) is activated or not"",""Q1"":"" A GCM is a square marked with a star"",""Q2"":"" A GCM becomes active if all of its inputs are active"",""Q3"":"" You should assign a number to every detector in every network""}","[0,1,2,3]",,,,,,
12,1641.60999993328,img/inst_7.png,0.0,image-button-response,47,1109476,0.0-0.5-7.5-0.5,female,32,English,United States of America,Right,R562653127930gxrw,,,,,,,,,,
12,735.2399999508633,img/inst_1.png,0.0,image-button-response,48,1110213,0.0-0.6-0.6,female,32,English,United States of America,Right,R562653127930gxrw,,,,,,,,,,
12,,img/inst_2R.png,,causal-graph1,49,1111219,0.0-0.6-1.6,female,32,English,United States of America,Right,R562653127930gxrw,inactive,,,,,,,,,
12,,"img/inst_3R.png,img/inst_3R.gif",,causal-graph1,50,1117212,0.0-0.6-2.6,female,32,English,United States of America,Right,R562653127930gxrw,inactive,1.0,,,,,,,,
12,,img/inst_4R.png,,causal-graph1,51,1118292,0.0-0.6-3.6,female,32,English,United States of America,Right,R562653127930gxrw,inactive,,,,,,,,,
12,,"img/inst_5R.png,img/inst_5RT.gif",,causal-graph1,52,1129276,0.0-0.6-4.6,female,32,English,United States of America,Right,R562653127930gxrw,inactive,1.0,,,,,,,,
12,2222.4699999205773,img/inst_6.png,0.0,image-button-response,53,1131500,0.0-0.6-5.6,female,32,English,United States of America,Right,R562653127930gxrw,,,,,,,,,,
12,25805.134999915026,,,survey-multi-choice,54,1157308,0.0-0.6-6.6,female,32,English,United States of America,Right,R562653127930gxrw,,,"{""Q0"":"" To find out if the Gauge of Critical Moment (GCM) is activated or not"",""Q1"":"" A GCM is a square marked with a star"",""Q2"":"" A GCM becomes active if all of its inputs are active"",""Q3"":"" You should click on just one detector in each network""}","[0,1,2,3]",,,,,,
12,1475.3300000447782,img/inst_7.png,0.0,image-button-response,55,1158786,0.0-0.6-7.6-0.6,female,32,English,United States of America,Right,R562653127930gxrw,,,,,,,,,,
12,749.695000005886,img/inst_1.png,0.0,image-button-response,56,1159538,0.0-0.7-0.7,female,32,English,United States of America,Right,R562653127930gxrw,,,,,,,,,,
12,,img/inst_2R.png,,causal-graph1,57,1160483,0.0-0.7-1.7,female,32,English,United States of America,Right,R562653127930gxrw,inactive,,,,,,,,,
12,,"img/inst_3R.png,img/inst_3R.gif",,causal-graph1,58,1166443,0.0-0.7-2.7,female,32,English,United States of America,Right,R562653127930gxrw,inactive,1.0,,,,,,,,
12,,img/inst_4R.png,,causal-graph1,59,1167211,0.0-0.7-3.7,female,32,English,United States of America,Right,R562653127930gxrw,inactive,,,,,,,,,
12,,"img/inst_5R.png,img/inst_5RT.gif",,causal-graph1,60,1181067,0.0-0.7-4.7,female,32,English,United States of America,Right,R562653127930gxrw,inactive,1.0,,,,,,,,
12,1133.4550000028685,img/inst_6.png,0.0,image-button-response,61,1182202,0.0-0.7-5.7,female,32,English,United States of America,Right,R562653127930gxrw,,,,,,,,,,
12,9150.96999995876,,,survey-multi-choice,62,1191356,0.0-0.7-6.7,female,32,English,United States of America,Right,R562653127930gxrw,,,"{""Q0"":"" To find out if the Gauge of Critical Moment (GCM) is activated or not"",""Q1"":"" A GCM is a square marked with a star"",""Q2"":"" A GCM becomes active if all of its inputs are active"",""Q3"":"" Some detectors are not clickable""}","[0,1,2,3]",,,,,,
12,1434.7100000595676,img/inst_7.png,0.0,image-button-response,63,1192793,0.0-0.7-7.7-0.7,female,32,English,United States of America,Right,R562653127930gxrw,,,,,,,,,,
12,783.2049999851732,img/inst_1.png,0.0,image-button-response,64,1193578,0.0-0.8-0.8,female,32,English,United States of America,Right,R562653127930gxrw,,,,,,,,,,
12,,img/inst_2R.png,,causal-graph1,65,1194362,0.0-0.8-1.8,female,32,English,United States of America,Right,R562653127930gxrw,inactive,,,,,,,,,
12,,"img/inst_3R.png,img/inst_3R.gif",,causal-graph1,66,1202571,0.0-0.8-2.8,female,32,English,United States of America,Right,R562653127930gxrw,inactive,1.0,,,,,,,,
12,,img/inst_4R.png,,causal-graph1,67,1203809,0.0-0.8-3.8,female,32,English,United States of America,Right,R562653127930gxrw,inactive,,,,,,,,,
12,,"img/inst_5R.png,img/inst_5RT.gif",,causal-graph1,68,1214994,0.0-0.8-4.8,female,32,English,United States of America,Right,R562653127930gxrw,inactive,1.0,,,,,,,,
12,1420.8850000286475,img/inst_6.png,0.0,image-button-response,69,1216417,0.0-0.8-5.8,female,32,English,United States of America,Right,R562653127930gxrw,,,,,,,,,,
12,14614.880000008268,,,survey-multi-choice,70,1231035,0.0-0.8-6.8,female,32,English,United States of America,Right,R562653127930gxrw,,,"{""Q0"":"" To find out if the Gauge of Critical Moment (GCM) is activated or not"",""Q1"":"" A GCM is a square marked with a star"",""Q2"":"" A GCM becomes active if all of its inputs are active"",""Q3"":"" Some detectors are not clickable""}","[0,1,2,3]",,,,,,
12,1351.4150000410154,img/inst_7.png,0.0,image-button-response,71,1232389,0.0-0.8-7.8-0.8,female,32,English,United States of America,Right,R562653127930gxrw,,,,,,,,,,
12,777.4800000479445,img/inst_1.png,0.0,image-button-response,72,1233168,0.0-0.9-0.9,female,32,English,United States of America,Right,R562653127930gxrw,,,,,,,,,,
12,,img/inst_2R.png,,causal-graph1,73,1234137,0.0-0.9-1.9,female,32,English,United States of America,Right,R562653127930gxrw,inactive,,,,,,,,,
12,,"img/inst_3R.png,img/inst_3R.gif",,causal-graph1,74,1240473,0.0-0.9-2.9,female,32,English,United States of America,Right,R562653127930gxrw,inactive,1.0,,,,,,,,
12,,img/inst_4R.png,,causal-graph1,75,1241401,0.0-0.9-3.9,female,32,English,United States of America,Right,R562653127930gxrw,inactive,,,,,,,,,
12,,"img/inst_5R.png,img/inst_5RT.gif",,causal-graph1,76,1251929,0.0-0.9-4.9,female,32,English,United States of America,Right,R562653127930gxrw,inactive,1.0,,,,,,,,
12,1301.9850000273434,img/inst_6.png,0.0,image-button-response,77,1253233,0.0-0.9-5.9,female,32,English,United States of America,Right,R562653127930gxrw,,,,,,,,,,
12,20428.8200000301,,,survey-multi-choice,78,1273665,0.0-0.9-6.9,female,32,English,United States of America,Right,R562653127930gxrw,,,"{""Q0"":"" To decide what caused the activation of the GCM"",""Q1"":"" A GCM is a square marked with a star"",""Q2"":"" A GCM becomes active if all of its inputs are active"",""Q3"":"" You should assign a number to every detector in every network""}","[0,1,2,3]",,,,,,
12,1356.8899999372659,img/inst_7.png,0.0,image-button-response,79,1275033,0.0-0.9-7.9-0.9,female,32,English,United States of America,Right,R562653127930gxrw,,,,,,,,,,
12,763.0150000331923,img/inst_1.png,0.0,image-button-response,80,1275800,0.0-0.10-0.10,female,32,English,United States of America,Right,R562653127930gxrw,,,,,,,,,,
12,,img/inst_2R.png,,causal-graph1,81,1276737,0.0-0.10-1.10,female,32,English,United States of America,Right,R562653127930gxrw,inactive,,,,,,,,,
12,,"img/inst_3R.png,img/inst_3R.gif",,causal-graph1,82,1282944,0.0-0.10-2.10,female,32,English,United States of America,Right,R562653127930gxrw,inactive,1.0,,,,,,,,
12,,img/inst_4R.png,,causal-graph1,83,1283769,0.0-0.10-3.10,female,32,English,United States of America,Right,R562653127930gxrw,inactive,,,,,,,,,
12,,"img/inst_5R.png,img/inst_5RT.gif",,causal-graph1,84,1294644,0.0-0.10-4.10,female,32,English,United States of America,Right,R562653127930gxrw,inactive,1.0,,,,,,,,
12,1042.0999999623746,img/inst_6.png,0.0,image-button-response,85,1295688,0.0-0.10-5.10,female,32,English,United States of America,Right,R562653127930gxrw,,,,,,,,,,
12,15501.960000023248,,,survey-multi-choice,86,1311193,0.0-0.10-6.10,female,32,English,United States of America,Right,R562653127930gxrw,,,"{""Q0"":"" To decide what caused the activation of the GCM"",""Q1"":"" A GCM is a square marked with a star"",""Q2"":"" A GCM becomes active if all of its inputs are active"",""Q3"":"" You should click on just one detector in each network""}","[0,1,2,3]",,,,,,
12,6718.82499998901,img/inst_8.png,0.0,image-button-response,87,1317920,0.0-1.0,female,32,English,United States of America,Right,R562653127930gxrw,,,,,,,,,,
12,26162.099999957718,"img/chain_R.png,img/chain_RM.gif",,causal-graph1,88,1348783,0.0-2.0,female,32,English,United States of America,Right,R562653127930gxrw,active,1.0,,,Chain,Medium,,,,node4
12,17549.514999962412,"img/branch_RBMS.png,img/branch_RBMS.gif",,causal-graph1,89,1368495,0.0-3.0,female,32,English,United States of America,Right,R562653127930gxrw,active,1.0,,,AND_Gate,Medium,State,Bottom,,node5
12,9551.89000000246,"img/chain_R.png,img/chain_RS.gif",,causal-graph1,90,1380975,0.0-4.0,female,32,English,United States of America,Right,R562653127930gxrw,active,1.0,,,Chain,Short,,,,node7
12,15517.594999982975,"img/chain_R.png,img/chain_RL.gif",,causal-graph1,91,1399086,0.0-5.0,female,32,English,United States of America,Right,R562653127930gxrw,active,1.0,,,Chain,Long,,,,node3
12,11927.284999983383,"img/branch_RBSS.png,img/branch_RBSS.gif",,causal-graph1,92,1412838,0.0-6.0,female,32,English,United States of America,Right,R562653127930gxrw,active,1.0,,,AND_Gate,Short,State,Bottom,,node7
12,10453.905000002123,"img/branch_RTLS.png,img/branch_RTLS.gif",,causal-graph1,93,1425758,0.0-7.0,female,32,English,United States of America,Right,R562653127930gxrw,active,1.0,,,AND_Gate,Long,State,Top,,node10
12,17782.415000023317,"img/branch_RE.png,img/branch_RBLE3.gif",,causal-graph1,94,1445197,0.0-8.0,female,32,English,United States of America,Right,R562653127930gxrw,active,1.0,,,AND_Gate,Long,Event,Bottom,Long,node10
12,21590.45000001788,"img/branch_RE.png,img/branch_RBME3.gif",,causal-graph1,95,1469029,0.0-9.0,female,32,English,United States of America,Right,R562653127930gxrw,active,1.0,,,AND_Gate,Medium,Event,Bottom,Long,node12
12,13654.764999984764,"img/branch_RE.png,img/branch_RBLE1.gif",,causal-graph1,96,1485309,0.0-10.0,female,32,English,United States of America,Right,R562653127930gxrw,active,1.0,,,AND_Gate,Long,Event,Bottom,Short,node10
12,16638.660000055093,"img/branch_RE.png,img/branch_RTLE2.gif",,causal-graph1,97,1504036,0.0-11.0,female,32,English,United States of America,Right,R562653127930gxrw,active,1.0,,,AND_Gate,Long,Event,Top,Medium,node10
12,14020.829999935813,"img/branch_RE.png,img/branch_RBSE3.gif",,causal-graph1,98,1519988,0.0-12.0,female,32,English,United States of America,Right,R562653127930gxrw,active,1.0,,,AND_Gate,Short,Event,Bottom,Long,node14
12,14467.665000003764,"img/branch_RE.png,img/branch_RTME1.gif",,causal-graph1,99,1537819,0.0-13.0,female,32,English,United States of America,Right,R562653127930gxrw,active,1.0,,,AND_Gate,Medium,Event,Top,Short,node12
12,10791.190000018105,"img/branch_RE.png,img/branch_RBSE2.gif",,causal-graph1,100,1551317,0.0-14.0,female,32,English,United States of America,Right,R562653127930gxrw,active,1.0,,,AND_Gate,Short,Event,Bottom,Medium,node7
12,9319.270000094548,"img/branch_RE.png,img/branch_RBSE1.gif",,causal-graph1,101,1563091,0.0-15.0,female,32,English,United States of America,Right,R562653127930gxrw,active,1.0,,,AND_Gate,Short,Event,Bottom,Short,node7
12,13829.56999994349,"img/branch_RE.png,img/branch_RBME2.gif",,causal-graph1,102,1578243,0.0-16.0,female,32,English,United States of America,Right,R562653127930gxrw,active,1.0,,,AND_Gate,Medium,Event,Bottom,Medium,node5
12,4933.834999916144,img/inst_9.png,0.0,image-button-response,103,1583181,0.0-17.0,female,32,English,United States of America,Right,R562653127930gxrw,,,,,,,,,,
12,16031.964999972844,,,survey-text,104,1599228,0.0-18.0,female,32,English,United States of America,Right,R562653127930gxrw,,,"{""Q0"":""""}",,,,,,,
13,48039.405000003164,img/inst_1.png,0.0,image-button-response,0,48048,0.0-0.0-0.0,male,32,english,United States of America,Right,R566190997320gxrw,,,,,,,,,,
13,,img/inst_2R.png,,causal-graph1,1,90788,0.0-0.0-1.0,male,32,english,United States of America,Right,R566190997320gxrw,inactive,,,,,,,,,
13,,"img/inst_3R.png,img/inst_3R.gif",,causal-graph1,2,194161,0.0-0.0-2.0,male,32,english,United States of America,Right,R566190997320gxrw,inactive,1.0,,,,,,,,
13,,img/inst_4R.png,,causal-graph1,3,207335,0.0-0.0-3.0,male,32,english,United States of America,Right,R566190997320gxrw,inactive,,,,,,,,,
13,,"img/inst_5R.png,img/inst_5RT.gif",,causal-graph1,4,232647,0.0-0.0-4.0,male,32,english,United States of America,Right,R566190997320gxrw,inactive,1.0,,,,,,,,
13,289599.13499999675,img/inst_6.png,0.0,image-button-response,5,522268,0.0-0.0-5.0,male,32,english,United States of America,Right,R566190997320gxrw,,,,,,,,,,
13,306436.33499999845,,,survey-multi-choice,6,828728,0.0-0.0-6.0,male,32,english,United States of America,Right,R566190997320gxrw,,,"{""Q0"":"" To decide what causes the activation of each detector"",""Q1"":"" A GCM is a square marked with a star"",""Q2"":"" A GCM becomes active if all of its inputs are active"",""Q3"":"" You should click on just one detector in each network""}","[0,1,2,3]",,,,,,
13,21412.880000003497,img/inst_7.png,0.0,image-button-response,7,850144,0.0-0.0-7.0-0.0,male,32,english,United States of America,Right,R566190997320gxrw,,,,,,,,,,
13,3707.204999998794,img/inst_1.png,0.0,image-button-response,8,853858,0.0-0.1-0.1,male,32,english,United States of America,Right,R566190997320gxrw,,,,,,,,,,
13,,img/inst_2R.png,,causal-graph1,9,866608,0.0-0.1-1.1,male,32,english,United States of America,Right,R566190997320gxrw,inactive,,,,,,,,,
13,,"img/inst_3R.png,img/inst_3R.gif",,causal-graph1,10,889066,0.0-0.1-2.1,male,32,english,United States of America,Right,R566190997320gxrw,inactive,2.0,,,,,,,,
13,,img/inst_4R.png,,causal-graph1,11,904825,0.0-0.1-3.1,male,32,english,United States of America,Right,R566190997320gxrw,inactive,,,,,,,,,
13,,"img/inst_5R.png,img/inst_5RT.gif",,causal-graph1,12,1029617,0.0-0.1-4.1,male,32,english,United States of America,Right,R566190997320gxrw,inactive,1.0,,,,,,,,
13,35455.04500000249,img/inst_6.png,0.0,image-button-response,13,1065080,0.0-0.1-5.1,male,32,english,United States of America,Right,R566190997320gxrw,,,,,,,,,,
13,283198.95500000013,,,survey-multi-choice,14,1348300,0.0-0.1-6.1,male,32,english,United States of America,Right,R566190997320gxrw,,,"{""Q0"":"" To decide what caused the activation of the GCM"",""Q1"":"" A GCM is a square marked with a star"",""Q2"":"" A GCM becomes active if all of its inputs are active"",""Q3"":"" You should click on just one detector in each network""}","[0,1,2,3]",,,,,,
13,10546.965000001479,img/inst_8.png,0.0,image-button-response,15,1358849,0.0-1.0,male,32,english,United States of America,Right,R566190997320gxrw,,,,,,,,,,
13,25317.8899999985,"img/branch_RE.png,img/branch_RBLE1.gif",,causal-graph1,16,1446866,0.0-2.0,male,32,english,United States of America,Right,R566190997320gxrw,active,2.0,,,AND_Gate,Long,Event,Bottom,Short,node13
13,19246.930000001103,"img/branch_RE.png,img/branch_RBME2.gif",,causal-graph1,17,1471549,0.0-3.0,male,32,english,United States of America,Right,R566190997320gxrw,active,1.0,,,AND_Gate,Medium,Event,Bottom,Medium,node15
13,50267.39500000258,"img/branch_RBLS.png,img/branch_RBLS.gif",,causal-graph1,18,1527495,0.0-4.0,male,32,english,United States of America,Right,R566190997320gxrw,active,1.0,,,AND_Gate,Long,State,Bottom,,node3
13,11533.709999996003,"img/chain_R.png,img/chain_RL.gif",,causal-graph1,19,1551268,0.0-5.0,male,32,english,United States of America,Right,R566190997320gxrw,active,1.0,,,Chain,Long,,,,node7
13,26459.26500000502,"img/branch_RE.png,img/branch_RBME1.gif",,causal-graph1,20,1614107,0.0-6.0,male,32,english,United States of America,Right,R566190997320gxrw,active,1.0,,,AND_Gate,Medium,Event,Bottom,Short,node15
13,20937.21500000544,"img/branch_RTMS.png,img/branch_RTMS.gif",,causal-graph1,21,1641012,0.0-7.0,male,32,english,United States of America,Right,R566190997320gxrw,active,1.0,,,AND_Gate,Medium,State,Top,,node6
13,9426.615000003947,"img/chain_R.png,img/chain_RM.gif",,causal-graph1,22,1653669,0.0-8.0,male,32,english,United States of America,Right,R566190997320gxrw,active,1.0,,,Chain,Medium,,,,node5
13,14632.769999996526,"img/chain_R.png,img/chain_RS.gif",,causal-graph1,23,1682152,0.0-9.0,male,32,english,United States of America,Right,R566190997320gxrw,active,1.0,,,Chain,Short,,,,node7
13,25265.740000002555,"img/branch_RE.png,img/branch_RTLE2.gif",,causal-graph1,24,1711679,0.0-10.0,male,32,english,United States of America,Right,R566190997320gxrw,active,1.0,,,AND_Gate,Long,Event,Top,Medium,node14
13,18390.400000003865,"img/branch_RE.png,img/branch_RTME3.gif",,causal-graph1,25,1735827,0.0-11.0,male,32,english,United States of America,Right,R566190997320gxrw,active,1.0,,,AND_Gate,Medium,Event,Top,Long,node12
13,17918.349999999857,"img/branch_RE.png,img/branch_RTSE3.gif",,causal-graph1,26,1756116,0.0-12.0,male,32,english,United States of America,Right,R566190997320gxrw,active,1.0,,,AND_Gate,Short,Event,Top,Long,node7
13,13718.159999996655,"img/branch_RE.png,img/branch_RBSE2.gif",,causal-graph1,27,1771849,0.0-13.0,male,32,english,United States of America,Right,R566190997320gxrw,active,1.0,,,AND_Gate,Short,Event,Bottom,Medium,node15
13,17202.96000000229,"img/branch_RE.png,img/branch_RTLE3.gif",,causal-graph1,28,1843959,0.0-14.0,male,32,english,United States of America,Right,R566190997320gxrw,active,1.0,,,AND_Gate,Long,Event,Top,Long,node15
13,11460.650000001071,"img/branch_RTSS.png,img/branch_RTSS.gif",,causal-graph1,29,1941058,0.0-15.0,male,32,english,United States of America,Right,R566190997320gxrw,active,1.0,,,AND_Gate,Short,State,Top,,node14
13,24851.819999996107,"img/branch_RE.png,img/branch_RBSE1.gif",,causal-graph1,30,1984530,0.0-16.0,male,32,english,United States of America,Right,R566190997320gxrw,active,1.0,,,AND_Gate,Short,Event,Bottom,Short,node15
13,34095.11500000395,img/inst_9.png,0.0,image-button-response,31,2018628,0.0-17.0,male,32,english,United States of America,Right,R566190997320gxrw,,,,,,,,,,
