subject_id,rt,stimulus,trial_type,gender,age,language,country,sampling,turkcode,nb_of_run,responses,stim_type,length,state_OR_event,branch_first,time_interval,node_selected
1,,instruction,image-button-response,male,29,English,United States of America,Right,R568084887600gxrw,,,,,,,,
1,,instruction,causal-graph1,male,29,English,United States of America,Right,R568084887600gxrw,,,,,,,,
1,,instruction,causal-graph1,male,29,English,United States of America,Right,R568084887600gxrw,1.0,,,,,,,
1,,instruction,causal-graph1,male,29,English,United States of America,Right,R568084887600gxrw,,,,,,,,
1,,instruction,causal-graph1,male,29,English,United States of America,Right,R568084887600gxrw,2.0,,,,,,,
1,,instruction,image-button-response,male,29,English,United States of America,Right,R568084887600gxrw,,,,,,,,
1,,instruction,survey-multi-choice,male,29,English,United States of America,Right,R568084887600gxrw,,"{""Q0"":"" To decide what caused the activation of the GCM"",""Q1"":"" A GCM is a square marked with a star"",""Q2"":"" A GCM becomes active if all of its inputs are active"",""Q3"":"" You should click on just one detector in each network""}",,,,,,
1,,instruction,image-button-response,male,29,English,United States of America,Right,R568084887600gxrw,,,,,,,,
1,22620.305000105873,chain_RL,causal-graph1,male,29,English,United States of America,Right,R568084887600gxrw,1.0,,Chain,Long,,,,node7
1,23863.119999878112,branch_RTLE1,causal-graph1,male,29,English,United States of America,Right,R568084887600gxrw,1.0,,AND_Gate,Long,Event,Top,Short,node12
1,10390.47500002198,branch_RBSS,causal-graph1,male,29,English,United States of America,Right,R568084887600gxrw,1.0,,AND_Gate,Short,State,Bottom,,node15
1,14482.459999853745,branch_RTSE3,causal-graph1,male,29,English,United States of America,Right,R568084887600gxrw,1.0,,AND_Gate,Short,Event,Top,Long,node14
1,30929.864999838173,branch_RTLE2,causal-graph1,male,29,English,United States of America,Right,R568084887600gxrw,1.0,,AND_Gate,Long,Event,Top,Medium,node14
1,30747.454999946054,chain_RM,causal-graph1,male,29,English,United States of America,Right,R568084887600gxrw,1.0,,Chain,Medium,,,,node7
1,15376.404999988154,branch_RBME1,causal-graph1,male,29,English,United States of America,Right,R568084887600gxrw,1.0,,AND_Gate,Medium,Event,Bottom,Short,node14
1,17772.184999892488,branch_RTSE1,causal-graph1,male,29,English,United States of America,Right,R568084887600gxrw,1.0,,AND_Gate,Short,Event,Top,Short,node14
1,19074.565000133593,branch_RTME2,causal-graph1,male,29,English,United States of America,Right,R568084887600gxrw,1.0,,AND_Gate,Medium,Event,Top,Medium,node7
1,13810.864999890327,branch_RTLS,causal-graph1,male,29,English,United States of America,Right,R568084887600gxrw,1.0,,AND_Gate,Long,State,Top,,node7
1,18807.154999813065,branch_RTLE3,causal-graph1,male,29,English,United States of America,Right,R568084887600gxrw,1.0,,AND_Gate,Long,Event,Top,Long,node15
1,11859.489999944344,branch_RTMS,causal-graph1,male,29,English,United States of America,Right,R568084887600gxrw,1.0,,AND_Gate,Medium,State,Top,,node14
1,12609.46499998681,branch_RTSE2,causal-graph1,male,29,English,United States of America,Right,R568084887600gxrw,1.0,,AND_Gate,Short,Event,Top,Medium,node7
1,12595.985000021756,chain_RS,causal-graph1,male,29,English,United States of America,Right,R568084887600gxrw,1.0,,Chain,Short,,,,node8
1,171543.4899998363,branch_RTME3,causal-graph1,male,29,English,United States of America,Right,R568084887600gxrw,1.0,,AND_Gate,Medium,Event,Top,Long,node14
1,,instruction,image-button-response,male,29,English,United States of America,Right,R568084887600gxrw,,,,,,,,
1,140711.45499986596,comment,survey-text,male,29,English,United States of America,Right,R568084887600gxrw,,"{""Q0"":""thankyou""}",,,,,,
2,,instruction,image-button-response,male,33,english,United States of America,Left,R564700337210gxrw,,,,,,,,
2,,instruction,causal-graph1,male,33,english,United States of America,Left,R564700337210gxrw,,,,,,,,
2,,instruction,causal-graph1,male,33,english,United States of America,Left,R564700337210gxrw,1.0,,,,,,,
2,,instruction,causal-graph1,male,33,english,United States of America,Left,R564700337210gxrw,,,,,,,,
2,,instruction,causal-graph1,male,33,english,United States of America,Left,R564700337210gxrw,2.0,,,,,,,
2,,instruction,image-button-response,male,33,english,United States of America,Left,R564700337210gxrw,,,,,,,,
2,,instruction,survey-multi-choice,male,33,english,United States of America,Left,R564700337210gxrw,,"{""Q0"":"" To decide what caused the activation of the GCM"",""Q1"":""A GCM is a square without any mark"",""Q2"":"" A GCM becomes active if all of its inputs are active"",""Q3"":"" You should click on just one detector in each network""}",,,,,,
2,,instruction,image-button-response,male,33,english,United States of America,Left,R564700337210gxrw,,,,,,,,
2,,instruction,image-button-response,male,33,english,United States of America,Left,R564700337210gxrw,,,,,,,,
2,,instruction,causal-graph1,male,33,english,United States of America,Left,R564700337210gxrw,,,,,,,,
2,,instruction,causal-graph1,male,33,english,United States of America,Left,R564700337210gxrw,1.0,,,,,,,
2,,instruction,causal-graph1,male,33,english,United States of America,Left,R564700337210gxrw,,,,,,,,
2,,instruction,causal-graph1,male,33,english,United States of America,Left,R564700337210gxrw,1.0,,,,,,,
2,,instruction,image-button-response,male,33,english,United States of America,Left,R564700337210gxrw,,,,,,,,
2,,instruction,survey-multi-choice,male,33,english,United States of America,Left,R564700337210gxrw,,"{""Q0"":"" To find out if the Gauge of Critical Moment (GCM) is activated or not"",""Q1"":"" A GCM is a square marked with a star"",""Q2"":"" A GCM becomes active if at least one of its inputs is active"",""Q3"":"" You should assign a number to every detector in every network""}",,,,,,
2,,instruction,image-button-response,male,33,english,United States of America,Left,R564700337210gxrw,,,,,,,,
2,,instruction,image-button-response,male,33,english,United States of America,Left,R564700337210gxrw,,,,,,,,
2,,instruction,causal-graph1,male,33,english,United States of America,Left,R564700337210gxrw,,,,,,,,
2,,instruction,causal-graph1,male,33,english,United States of America,Left,R564700337210gxrw,1.0,,,,,,,
2,,instruction,causal-graph1,male,33,english,United States of America,Left,R564700337210gxrw,,,,,,,,
2,,instruction,causal-graph1,male,33,english,United States of America,Left,R564700337210gxrw,1.0,,,,,,,
2,,instruction,image-button-response,male,33,english,United States of America,Left,R564700337210gxrw,,,,,,,,
2,,instruction,survey-multi-choice,male,33,english,United States of America,Left,R564700337210gxrw,,"{""Q0"":"" To find out if the Gauge of Critical Moment (GCM) is activated or not"",""Q1"":"" A GCM is a square marked with a star"",""Q2"":"" A GCM becomes active if all of its inputs are active"",""Q3"":"" You should assign a number to every detector in every network""}",,,,,,
2,,instruction,image-button-response,male,33,english,United States of America,Left,R564700337210gxrw,,,,,,,,
2,,instruction,image-button-response,male,33,english,United States of America,Left,R564700337210gxrw,,,,,,,,
2,,instruction,causal-graph1,male,33,english,United States of America,Left,R564700337210gxrw,,,,,,,,
2,,instruction,causal-graph1,male,33,english,United States of America,Left,R564700337210gxrw,1.0,,,,,,,
2,,instruction,causal-graph1,male,33,english,United States of America,Left,R564700337210gxrw,,,,,,,,
2,,instruction,causal-graph1,male,33,english,United States of America,Left,R564700337210gxrw,1.0,,,,,,,
2,,instruction,image-button-response,male,33,english,United States of America,Left,R564700337210gxrw,,,,,,,,
2,,instruction,survey-multi-choice,male,33,english,United States of America,Left,R564700337210gxrw,,"{""Q0"":"" To decide what caused the activation of the GCM"",""Q1"":"" A GCM is a square marked with a star"",""Q2"":"" A GCM becomes active if all of its inputs are active"",""Q3"":"" You should click on just one detector in each network""}",,,,,,
2,,instruction,image-button-response,male,33,english,United States of America,Left,R564700337210gxrw,,,,,,,,
2,24884.339999873187,branch_LTLE3,causal-graph1,male,33,english,United States of America,Left,R564700337210gxrw,2.0,,AND_Gate,Long,Event,Top,Long,node9
2,14610.43499992229,branch_LTSS,causal-graph1,male,33,english,United States of America,Left,R564700337210gxrw,1.0,,AND_Gate,Short,State,Top,,node9
2,19435.455000028014,branch_LTSE2,causal-graph1,male,33,english,United States of America,Left,R564700337210gxrw,1.0,,AND_Gate,Short,Event,Top,Medium,node2
2,46211.53500000946,chain_LL,causal-graph1,male,33,english,United States of America,Left,R564700337210gxrw,1.0,,Chain,Long,,,,node2
2,10857.569999992847,branch_LTSE1,causal-graph1,male,33,english,United States of America,Left,R564700337210gxrw,1.0,,AND_Gate,Short,Event,Top,Short,node1
2,18057.265000185,branch_LTMS,causal-graph1,male,33,english,United States of America,Left,R564700337210gxrw,1.0,,AND_Gate,Medium,State,Top,,node2
2,19841.260000132024,branch_LTME1,causal-graph1,male,33,english,United States of America,Left,R564700337210gxrw,1.0,,AND_Gate,Medium,Event,Top,Short,node9
2,16809.11000003107,branch_LBME3,causal-graph1,male,33,english,United States of America,Left,R564700337210gxrw,1.0,,AND_Gate,Medium,Event,Bottom,Long,node2
2,10868.255000095814,chain_LM,causal-graph1,male,33,english,United States of America,Left,R564700337210gxrw,1.0,,Chain,Medium,,,,node2
2,30865.2749999892,branch_LTLE2,causal-graph1,male,33,english,United States of America,Left,R564700337210gxrw,1.0,,AND_Gate,Long,Event,Top,Medium,node9
2,28076.76500012167,chain_LS,causal-graph1,male,33,english,United States of America,Left,R564700337210gxrw,1.0,,Chain,Short,,,,node3
2,13220.329999923706,branch_LBLE1,causal-graph1,male,33,english,United States of America,Left,R564700337210gxrw,1.0,,AND_Gate,Long,Event,Bottom,Short,node8
2,11942.224999889731,branch_LTLS,causal-graph1,male,33,english,United States of America,Left,R564700337210gxrw,1.0,,AND_Gate,Long,State,Top,,node9
2,12499.779999954626,branch_LBME2,causal-graph1,male,33,english,United States of America,Left,R564700337210gxrw,1.0,,AND_Gate,Medium,Event,Bottom,Medium,node9
2,13415.074999909848,branch_LBSE3,causal-graph1,male,33,english,United States of America,Left,R564700337210gxrw,1.0,,AND_Gate,Short,Event,Bottom,Long,node9
2,,instruction,image-button-response,male,33,english,United States of America,Left,R564700337210gxrw,,,,,,,,
2,5701.594999991357,comment,survey-text,male,33,english,United States of America,Left,R564700337210gxrw,,"{""Q0"":""noone""}",,,,,,
3,,instruction,image-button-response,male,52,English,United States of America,Right,R569457007290gxrw,,,,,,,,
3,,instruction,causal-graph1,male,52,English,United States of America,Right,R569457007290gxrw,,,,,,,,
3,,instruction,causal-graph1,male,52,English,United States of America,Right,R569457007290gxrw,1.0,,,,,,,
3,,instruction,causal-graph1,male,52,English,United States of America,Right,R569457007290gxrw,,,,,,,,
3,,instruction,causal-graph1,male,52,English,United States of America,Right,R569457007290gxrw,1.0,,,,,,,
3,,instruction,image-button-response,male,52,English,United States of America,Right,R569457007290gxrw,,,,,,,,
3,,instruction,survey-multi-choice,male,52,English,United States of America,Right,R569457007290gxrw,,"{""Q0"":"" To find out if the Gauge of Critical Moment (GCM) is activated or not"",""Q1"":""A GCM is a square without any mark"",""Q2"":"" A GCM becomes active if at least one of its inputs is active"",""Q3"":"" You should click on just one detector in each network""}",,,,,,
3,,instruction,image-button-response,male,52,English,United States of America,Right,R569457007290gxrw,,,,,,,,
3,,instruction,image-button-response,male,52,English,United States of America,Right,R569457007290gxrw,,,,,,,,
3,,instruction,causal-graph1,male,52,English,United States of America,Right,R569457007290gxrw,,,,,,,,
3,,instruction,causal-graph1,male,52,English,United States of America,Right,R569457007290gxrw,1.0,,,,,,,
3,,instruction,causal-graph1,male,52,English,United States of America,Right,R569457007290gxrw,,,,,,,,
3,,instruction,causal-graph1,male,52,English,United States of America,Right,R569457007290gxrw,1.0,,,,,,,
3,,instruction,image-button-response,male,52,English,United States of America,Right,R569457007290gxrw,,,,,,,,
3,,instruction,survey-multi-choice,male,52,English,United States of America,Right,R569457007290gxrw,,"{""Q0"":"" To decide what causes the activation of each detector"",""Q1"":"" A GCM is a square marked with a star"",""Q2"":"" A GCM becomes active if all of its inputs are active"",""Q3"":"" Some detectors are not clickable""}",,,,,,
3,,instruction,image-button-response,male,52,English,United States of America,Right,R569457007290gxrw,,,,,,,,
3,,instruction,image-button-response,male,52,English,United States of America,Right,R569457007290gxrw,,,,,,,,
3,,instruction,causal-graph1,male,52,English,United States of America,Right,R569457007290gxrw,,,,,,,,
3,,instruction,causal-graph1,male,52,English,United States of America,Right,R569457007290gxrw,1.0,,,,,,,
3,,instruction,causal-graph1,male,52,English,United States of America,Right,R569457007290gxrw,,,,,,,,
3,,instruction,causal-graph1,male,52,English,United States of America,Right,R569457007290gxrw,1.0,,,,,,,
3,,instruction,image-button-response,male,52,English,United States of America,Right,R569457007290gxrw,,,,,,,,
3,,instruction,survey-multi-choice,male,52,English,United States of America,Right,R569457007290gxrw,,"{""Q0"":"" To decide what causes the activation of each detector"",""Q1"":"" A GCM is a square marked with a star"",""Q2"":"" A GCM becomes active if all of its inputs are active"",""Q3"":"" You should click on just one detector in each network""}",,,,,,
3,,instruction,image-button-response,male,52,English,United States of America,Right,R569457007290gxrw,,,,,,,,
3,,instruction,image-button-response,male,52,English,United States of America,Right,R569457007290gxrw,,,,,,,,
3,,instruction,causal-graph1,male,52,English,United States of America,Right,R569457007290gxrw,,,,,,,,
3,,instruction,causal-graph1,male,52,English,United States of America,Right,R569457007290gxrw,1.0,,,,,,,
3,,instruction,causal-graph1,male,52,English,United States of America,Right,R569457007290gxrw,,,,,,,,
3,,instruction,causal-graph1,male,52,English,United States of America,Right,R569457007290gxrw,1.0,,,,,,,
3,,instruction,image-button-response,male,52,English,United States of America,Right,R569457007290gxrw,,,,,,,,
3,,instruction,survey-multi-choice,male,52,English,United States of America,Right,R569457007290gxrw,,"{""Q0"":"" To decide what causes the activation of each detector"",""Q1"":"" A GCM is a square marked with a star"",""Q2"":"" A GCM becomes active if all of its inputs are active"",""Q3"":"" You should assign a number to every detector in every network""}",,,,,,
3,,instruction,image-button-response,male,52,English,United States of America,Right,R569457007290gxrw,,,,,,,,
3,,instruction,image-button-response,male,52,English,United States of America,Right,R569457007290gxrw,,,,,,,,
3,,instruction,causal-graph1,male,52,English,United States of America,Right,R569457007290gxrw,,,,,,,,
3,,instruction,causal-graph1,male,52,English,United States of America,Right,R569457007290gxrw,1.0,,,,,,,
3,,instruction,causal-graph1,male,52,English,United States of America,Right,R569457007290gxrw,,,,,,,,
3,,instruction,causal-graph1,male,52,English,United States of America,Right,R569457007290gxrw,1.0,,,,,,,
3,,instruction,image-button-response,male,52,English,United States of America,Right,R569457007290gxrw,,,,,,,,
3,,instruction,survey-multi-choice,male,52,English,United States of America,Right,R569457007290gxrw,,"{""Q0"":"" To decide what causes the activation of each detector"",""Q1"":"" A GCM is a square marked with a star"",""Q2"":"" A GCM can activate itself at any stage"",""Q3"":"" You should click on just one detector in each network""}",,,,,,
3,,instruction,image-button-response,male,52,English,United States of America,Right,R569457007290gxrw,,,,,,,,
3,,instruction,image-button-response,male,52,English,United States of America,Right,R569457007290gxrw,,,,,,,,
3,,instruction,causal-graph1,male,52,English,United States of America,Right,R569457007290gxrw,,,,,,,,
3,,instruction,causal-graph1,male,52,English,United States of America,Right,R569457007290gxrw,1.0,,,,,,,
3,,instruction,causal-graph1,male,52,English,United States of America,Right,R569457007290gxrw,,,,,,,,
3,,instruction,causal-graph1,male,52,English,United States of America,Right,R569457007290gxrw,1.0,,,,,,,
3,,instruction,image-button-response,male,52,English,United States of America,Right,R569457007290gxrw,,,,,,,,
3,,instruction,survey-multi-choice,male,52,English,United States of America,Right,R569457007290gxrw,,"{""Q0"":"" To decide what caused the activation of the GCM"",""Q1"":"" A GCM is a square marked with a star"",""Q2"":"" A GCM becomes active if all of its inputs are active"",""Q3"":"" You should assign a number to every detector in every network""}",,,,,,
3,,instruction,image-button-response,male,52,English,United States of America,Right,R569457007290gxrw,,,,,,,,
3,,instruction,image-button-response,male,52,English,United States of America,Right,R569457007290gxrw,,,,,,,,
3,,instruction,causal-graph1,male,52,English,United States of America,Right,R569457007290gxrw,,,,,,,,
3,,instruction,causal-graph1,male,52,English,United States of America,Right,R569457007290gxrw,1.0,,,,,,,
3,,instruction,causal-graph1,male,52,English,United States of America,Right,R569457007290gxrw,,,,,,,,
3,,instruction,causal-graph1,male,52,English,United States of America,Right,R569457007290gxrw,1.0,,,,,,,
3,,instruction,image-button-response,male,52,English,United States of America,Right,R569457007290gxrw,,,,,,,,
3,,instruction,survey-multi-choice,male,52,English,United States of America,Right,R569457007290gxrw,,"{""Q0"":"" To decide what caused the activation of the GCM"",""Q1"":"" A GCM is a square marked with a star"",""Q2"":"" A GCM becomes active if all of its inputs are active"",""Q3"":"" You should click on just one detector in each network""}",,,,,,
3,,instruction,image-button-response,male,52,English,United States of America,Right,R569457007290gxrw,,,,,,,,
3,34645.99999994971,branch_RTLE2,causal-graph1,male,52,English,United States of America,Right,R569457007290gxrw,1.0,,AND_Gate,Long,Event,Top,Medium,node3
3,22849.099999992177,branch_RTLE3,causal-graph1,male,52,English,United States of America,Right,R569457007290gxrw,2.0,,AND_Gate,Long,Event,Top,Long,node3
3,15994.19999984093,branch_RTME2,causal-graph1,male,52,English,United States of America,Right,R569457007290gxrw,1.0,,AND_Gate,Medium,Event,Top,Medium,node5
3,9012.164999963716,chain_RM,causal-graph1,male,52,English,United States of America,Right,R569457007290gxrw,1.0,,Chain,Medium,,,,node5
3,8867.284999927506,branch_RBSS,causal-graph1,male,52,English,United States of America,Right,R569457007290gxrw,1.0,,AND_Gate,Short,State,Bottom,,node14
3,12904.26500001922,branch_RBLE1,causal-graph1,male,52,English,United States of America,Right,R569457007290gxrw,1.0,,AND_Gate,Long,Event,Bottom,Short,node10
3,13154.289999976752,branch_RTLS,causal-graph1,male,52,English,United States of America,Right,R569457007290gxrw,1.0,,AND_Gate,Long,State,Top,,node10
3,94035.82499991173,branch_RBMS,causal-graph1,male,52,English,United States of America,Right,R569457007290gxrw,1.0,,AND_Gate,Medium,State,Bottom,,node5
3,15786.030000075698,branch_RTME3,causal-graph1,male,52,English,United States of America,Right,R569457007290gxrw,1.0,,AND_Gate,Medium,Event,Top,Long,node5
3,13155.950000043958,branch_RTSE3,causal-graph1,male,52,English,United States of America,Right,R569457007290gxrw,1.0,,AND_Gate,Short,Event,Top,Long,node7
3,9721.164999995379,chain_RL,causal-graph1,male,52,English,United States of America,Right,R569457007290gxrw,1.0,,Chain,Long,,,,node3
3,9350.429999874903,branch_RTSE1,causal-graph1,male,52,English,United States of America,Right,R569457007290gxrw,1.0,,AND_Gate,Short,Event,Top,Short,node7
3,10049.069999950008,branch_RTSE2,causal-graph1,male,52,English,United States of America,Right,R569457007290gxrw,1.0,,AND_Gate,Short,Event,Top,Medium,node7
3,11089.930000016464,branch_RBME1,causal-graph1,male,52,English,United States of America,Right,R569457007290gxrw,1.0,,AND_Gate,Medium,Event,Bottom,Short,node12
3,10577.354999957606,chain_RS,causal-graph1,male,52,English,United States of America,Right,R569457007290gxrw,1.0,,Chain,Short,,,,node7
3,,instruction,image-button-response,male,52,English,United States of America,Right,R569457007290gxrw,,,,,,,,
3,5204.640000127256,comment,survey-text,male,52,English,United States of America,Right,R569457007290gxrw,,"{""Q0"":""""}",,,,,,
4,,instruction,image-button-response,male,30,English,United States of America,Left,R565583967120gxrw,,,,,,,,
4,,instruction,causal-graph1,male,30,English,United States of America,Left,R565583967120gxrw,,,,,,,,
4,,instruction,causal-graph1,male,30,English,United States of America,Left,R565583967120gxrw,3.0,,,,,,,
4,,instruction,causal-graph1,male,30,English,United States of America,Left,R565583967120gxrw,,,,,,,,
4,,instruction,causal-graph1,male,30,English,United States of America,Left,R565583967120gxrw,1.0,,,,,,,
4,,instruction,image-button-response,male,30,English,United States of America,Left,R565583967120gxrw,,,,,,,,
4,,instruction,survey-multi-choice,male,30,English,United States of America,Left,R565583967120gxrw,,"{""Q0"":"" To decide what caused the activation of the GCM"",""Q1"":"" A GCM is a square marked with a star"",""Q2"":"" A GCM becomes active if all of its inputs are active"",""Q3"":"" You should click on just one detector in each network""}",,,,,,
4,,instruction,image-button-response,male,30,English,United States of America,Left,R565583967120gxrw,,,,,,,,
4,18827.00000000113,branch_LBMS,causal-graph1,male,30,English,United States of America,Left,R565583967120gxrw,3.0,,AND_Gate,Medium,State,Bottom,,node2
4,18465.000000000146,chain_LL,causal-graph1,male,30,English,United States of America,Left,R565583967120gxrw,1.0,,Chain,Long,,,,node2
4,14565.999999998894,branch_LTME2,causal-graph1,male,30,English,United States of America,Left,R565583967120gxrw,1.0,,AND_Gate,Medium,Event,Top,Medium,node10
4,41863.00000000122,branch_LBLE2,causal-graph1,male,30,English,United States of America,Left,R565583967120gxrw,1.0,,AND_Gate,Long,Event,Bottom,Medium,node8
4,16352.999999999129,branch_LBLS,causal-graph1,male,30,English,United States of America,Left,R565583967120gxrw,1.0,,AND_Gate,Long,State,Bottom,,node9
4,39760.00000000204,branch_LTME3,causal-graph1,male,30,English,United States of America,Left,R565583967120gxrw,1.0,,AND_Gate,Medium,Event,Top,Long,node10
4,9218.000000000755,chain_LS,causal-graph1,male,30,English,United States of America,Left,R565583967120gxrw,1.0,,Chain,Short,,,,node2
4,49170.99999999849,branch_LBLE3,causal-graph1,male,30,English,United States of America,Left,R565583967120gxrw,1.0,,AND_Gate,Long,Event,Bottom,Long,node9
4,12735.00000000058,chain_LM,causal-graph1,male,30,English,United States of America,Left,R565583967120gxrw,1.0,,Chain,Medium,,,,node1
4,13406.999999999302,branch_LTSE3,causal-graph1,male,30,English,United States of America,Left,R565583967120gxrw,1.0,,AND_Gate,Short,Event,Top,Long,node12
4,40728.99999999942,branch_LBSE2,causal-graph1,male,30,English,United States of America,Left,R565583967120gxrw,1.0,,AND_Gate,Short,Event,Bottom,Medium,node13
4,15737.999999997555,branch_LBSE1,causal-graph1,male,30,English,United States of America,Left,R565583967120gxrw,1.0,,AND_Gate,Short,Event,Bottom,Short,node11
4,23095.99999999767,branch_LBLE1,causal-graph1,male,30,English,United States of America,Left,R565583967120gxrw,1.0,,AND_Gate,Long,Event,Bottom,Short,node9
4,9349.00000000198,branch_LTSS,causal-graph1,male,30,English,United States of America,Left,R565583967120gxrw,1.0,,AND_Gate,Short,State,Top,,node11
4,48028.9999999986,branch_LBME1,causal-graph1,male,30,English,United States of America,Left,R565583967120gxrw,1.0,,AND_Gate,Medium,Event,Bottom,Short,node11
4,,instruction,image-button-response,male,30,English,United States of America,Left,R565583967120gxrw,,,,,,,,
4,4008.9999999982538,comment,survey-text,male,30,English,United States of America,Left,R565583967120gxrw,,"{""Q0"":""well""}",,,,,,
5,,instruction,image-button-response,male,30,English ,United States of America,Right,R568127437130gxrw,,,,,,,,
5,,instruction,causal-graph1,male,30,English ,United States of America,Right,R568127437130gxrw,,,,,,,,
5,,instruction,causal-graph1,male,30,English ,United States of America,Right,R568127437130gxrw,1.0,,,,,,,
5,,instruction,causal-graph1,male,30,English ,United States of America,Right,R568127437130gxrw,,,,,,,,
5,,instruction,causal-graph1,male,30,English ,United States of America,Right,R568127437130gxrw,2.0,,,,,,,
5,,instruction,image-button-response,male,30,English ,United States of America,Right,R568127437130gxrw,,,,,,,,
5,,instruction,survey-multi-choice,male,30,English ,United States of America,Right,R568127437130gxrw,,"{""Q0"":"" To decide what caused the activation of the GCM"",""Q1"":"" A GCM is a square marked with a star"",""Q2"":"" A GCM becomes active if all of its inputs are active"",""Q3"":"" You should click on just one detector in each network""}",,,,,,
5,,instruction,image-button-response,male,30,English ,United States of America,Right,R568127437130gxrw,,,,,,,,
5,21438.99999999849,branch_RTLE2,causal-graph1,male,30,English ,United States of America,Right,R568127437130gxrw,1.0,,AND_Gate,Long,Event,Top,Medium,node4
5,9771.00000000064,chain_RL,causal-graph1,male,30,English ,United States of America,Right,R568127437130gxrw,1.0,,Chain,Long,,,,node8
5,39728.0000000028,branch_RBLE3,causal-graph1,male,30,English ,United States of America,Right,R568127437130gxrw,1.0,,AND_Gate,Long,Event,Bottom,Long,node12
5,31463.999999999938,branch_RBME2,causal-graph1,male,30,English ,United States of America,Right,R568127437130gxrw,1.0,,AND_Gate,Medium,Event,Bottom,Medium,node6
5,13353.99999999936,branch_RBSE3,causal-graph1,male,30,English ,United States of America,Right,R568127437130gxrw,1.0,,AND_Gate,Short,Event,Bottom,Long,node14
5,18872.999999999596,branch_RTSE1,causal-graph1,male,30,English ,United States of America,Right,R568127437130gxrw,1.0,,AND_Gate,Short,Event,Top,Short,node15
5,33965.000000003776,branch_RTME1,causal-graph1,male,30,English ,United States of America,Right,R568127437130gxrw,1.0,,AND_Gate,Medium,Event,Top,Short,node14
5,18864.999999997963,branch_RBSE2,causal-graph1,male,30,English ,United States of America,Right,R568127437130gxrw,1.0,,AND_Gate,Short,Event,Bottom,Medium,node15
5,9589.999999996508,branch_RTMS,causal-graph1,male,30,English ,United States of America,Right,R568127437130gxrw,1.0,,AND_Gate,Medium,State,Top,,node14
5,7989.000000001396,branch_RBSS,causal-graph1,male,30,English ,United States of America,Right,R568127437130gxrw,1.0,,AND_Gate,Short,State,Bottom,,node7
5,7959.000000002561,chain_RS,causal-graph1,male,30,English ,United States of America,Right,R568127437130gxrw,1.0,,Chain,Short,,,,node7
5,8529.00000000227,chain_RM,causal-graph1,male,30,English ,United States of America,Right,R568127437130gxrw,1.0,,Chain,Medium,,,,node7
5,14773.000000001048,branch_RBME3,causal-graph1,male,30,English ,United States of America,Right,R568127437130gxrw,1.0,,AND_Gate,Medium,Event,Bottom,Long,node7
5,13644.999999996799,branch_RTLE1,causal-graph1,male,30,English ,United States of America,Right,R568127437130gxrw,1.0,,AND_Gate,Long,Event,Top,Short,node13
5,11841.00000000035,branch_RBLS,causal-graph1,male,30,English ,United States of America,Right,R568127437130gxrw,1.0,,AND_Gate,Long,State,Bottom,,node6
5,,instruction,image-button-response,male,30,English ,United States of America,Right,R568127437130gxrw,,,,,,,,
5,6450.0000000043665,comment,survey-text,male,30,English ,United States of America,Right,R568127437130gxrw,,"{""Q0"":""good""}",,,,,,
6,,instruction,image-button-response,male,34,english,United States of America,Right,R563291027570gxrw,,,,,,,,
6,,instruction,causal-graph1,male,34,english,United States of America,Right,R563291027570gxrw,,,,,,,,
6,,instruction,causal-graph1,male,34,english,United States of America,Right,R563291027570gxrw,1.0,,,,,,,
6,,instruction,causal-graph1,male,34,english,United States of America,Right,R563291027570gxrw,,,,,,,,
6,,instruction,causal-graph1,male,34,english,United States of America,Right,R563291027570gxrw,1.0,,,,,,,
6,,instruction,image-button-response,male,34,english,United States of America,Right,R563291027570gxrw,,,,,,,,
6,,instruction,survey-multi-choice,male,34,english,United States of America,Right,R563291027570gxrw,,"{""Q0"":"" To decide what caused the activation of the GCM"",""Q1"":"" A GCM is a square marked with a star"",""Q2"":"" A GCM becomes active if all of its inputs are active"",""Q3"":"" You should click on just one detector in each network""}",,,,,,
6,,instruction,image-button-response,male,34,english,United States of America,Right,R563291027570gxrw,,,,,,,,
6,60479.999999999534,chain_RL,causal-graph1,male,34,english,United States of America,Right,R563291027570gxrw,1.0,,Chain,Long,,,,node6
6,12370.000000002678,chain_RS,causal-graph1,male,34,english,United States of America,Right,R563291027570gxrw,1.0,,Chain,Short,,,,node8
6,16771.000000000582,branch_RTSE2,causal-graph1,male,34,english,United States of America,Right,R563291027570gxrw,1.0,,AND_Gate,Short,Event,Top,Medium,node15
6,35314.99999999866,branch_RTME1,causal-graph1,male,34,english,United States of America,Right,R563291027570gxrw,1.0,,AND_Gate,Medium,Event,Top,Short,node14
6,17476.999999998952,branch_RBSE3,causal-graph1,male,34,english,United States of America,Right,R563291027570gxrw,1.0,,AND_Gate,Short,Event,Bottom,Long,node7
6,28560.00000000128,branch_RTLS,causal-graph1,male,34,english,United States of America,Right,R563291027570gxrw,1.0,,AND_Gate,Long,State,Top,,node6
6,13288.99999999709,branch_RBME2,causal-graph1,male,34,english,United States of America,Right,R563291027570gxrw,1.0,,AND_Gate,Medium,Event,Bottom,Medium,node14
6,28843.0000000007,branch_RTSE1,causal-graph1,male,34,english,United States of America,Right,R563291027570gxrw,1.0,,AND_Gate,Short,Event,Top,Short,node14
6,14583.999999998836,branch_RTMS,causal-graph1,male,34,english,United States of America,Right,R563291027570gxrw,1.0,,AND_Gate,Medium,State,Top,,node14
6,122188.00000000198,branch_RBLE1,causal-graph1,male,34,english,United States of America,Right,R563291027570gxrw,1.0,,AND_Gate,Long,Event,Bottom,Short,node14
6,23518.0,branch_RTLE3,causal-graph1,male,34,english,United States of America,Right,R563291027570gxrw,1.0,,AND_Gate,Long,Event,Top,Long,node14
6,48623.99999999988,chain_RM,causal-graph1,male,34,english,United States of America,Right,R563291027570gxrw,1.0,,Chain,Medium,,,,node7
6,143449.00000000055,branch_RTME3,causal-graph1,male,34,english,United States of America,Right,R563291027570gxrw,1.0,,AND_Gate,Medium,Event,Top,Long,node14
6,13176.99999999965,branch_RTSS,causal-graph1,male,34,english,United States of America,Right,R563291027570gxrw,1.0,,AND_Gate,Short,State,Top,,node14
6,14596.000000001397,branch_RTLE2,causal-graph1,male,34,english,United States of America,Right,R563291027570gxrw,1.0,,AND_Gate,Long,Event,Top,Medium,node7
6,,instruction,image-button-response,male,34,english,United States of America,Right,R563291027570gxrw,,,,,,,,
6,14840.000000000233,comment,survey-text,male,34,english,United States of America,Right,R563291027570gxrw,,"{""Q0"":""very nice study""}",,,,,,
7,,instruction,image-button-response,male,30,English,United States of America,Left,R564578077900gxrw,,,,,,,,
7,,instruction,causal-graph1,male,30,English,United States of America,Left,R564578077900gxrw,,,,,,,,
7,,instruction,causal-graph1,male,30,English,United States of America,Left,R564578077900gxrw,1.0,,,,,,,
7,,instruction,causal-graph1,male,30,English,United States of America,Left,R564578077900gxrw,,,,,,,,
7,,instruction,causal-graph1,male,30,English,United States of America,Left,R564578077900gxrw,1.0,,,,,,,
7,,instruction,image-button-response,male,30,English,United States of America,Left,R564578077900gxrw,,,,,,,,
7,,instruction,survey-multi-choice,male,30,English,United States of America,Left,R564578077900gxrw,,"{""Q0"":"" To find out if the Gauge of Critical Moment (GCM) is activated or not"",""Q1"":"" A GCM is a square marked with a star"",""Q2"":"" A GCM can activate itself at any stage"",""Q3"":"" You should assign a number to every detector in every network""}",,,,,,
7,,instruction,image-button-response,male,30,English,United States of America,Left,R564578077900gxrw,,,,,,,,
7,,instruction,image-button-response,male,30,English,United States of America,Left,R564578077900gxrw,,,,,,,,
7,,instruction,causal-graph1,male,30,English,United States of America,Left,R564578077900gxrw,,,,,,,,
7,,instruction,causal-graph1,male,30,English,United States of America,Left,R564578077900gxrw,1.0,,,,,,,
7,,instruction,causal-graph1,male,30,English,United States of America,Left,R564578077900gxrw,,,,,,,,
7,,instruction,causal-graph1,male,30,English,United States of America,Left,R564578077900gxrw,1.0,,,,,,,
7,,instruction,image-button-response,male,30,English,United States of America,Left,R564578077900gxrw,,,,,,,,
7,,instruction,survey-multi-choice,male,30,English,United States of America,Left,R564578077900gxrw,,"{""Q0"":"" To decide what caused the activation of the GCM"",""Q1"":"" A GCM is a square marked with a star"",""Q2"":"" A GCM becomes active if all of its inputs are active"",""Q3"":"" You should click on just one detector in each network""}",,,,,,
7,,instruction,image-button-response,male,30,English,United States of America,Left,R564578077900gxrw,,,,,,,,
7,29129.0,branch_LBLE2,causal-graph1,male,30,English,United States of America,Left,R564578077900gxrw,1.0,,AND_Gate,Long,Event,Bottom,Medium,node8
7,69795.99999999907,branch_LBSS,causal-graph1,male,30,English,United States of America,Left,R564578077900gxrw,1.0,,AND_Gate,Short,State,Bottom,,node4
7,11034.000000000933,branch_LBSE2,causal-graph1,male,30,English,United States of America,Left,R564578077900gxrw,1.0,,AND_Gate,Short,Event,Bottom,Medium,node10
7,19809.000000000466,chain_LS,causal-graph1,male,30,English,United States of America,Left,R564578077900gxrw,1.0,,Chain,Short,,,,node6
7,46838.0,branch_LBME1,causal-graph1,male,30,English,United States of America,Left,R564578077900gxrw,1.0,,AND_Gate,Medium,Event,Bottom,Short,node4
7,79734.00000000048,branch_LTMS,causal-graph1,male,30,English,United States of America,Left,R564578077900gxrw,1.0,,AND_Gate,Medium,State,Top,,node4
7,21089.0,branch_LBME2,causal-graph1,male,30,English,United States of America,Left,R564578077900gxrw,1.0,,AND_Gate,Medium,Event,Bottom,Medium,node4
7,164645.00000000047,branch_LBLE3,causal-graph1,male,30,English,United States of America,Left,R564578077900gxrw,1.0,,AND_Gate,Long,Event,Bottom,Long,node2
7,19232.0,branch_LBLE1,causal-graph1,male,30,English,United States of America,Left,R564578077900gxrw,1.0,,AND_Gate,Long,Event,Bottom,Short,node2
7,9639.999999999069,branch_LTLS,causal-graph1,male,30,English,United States of America,Left,R564578077900gxrw,1.0,,AND_Gate,Long,State,Top,,node2
7,14616.0,branch_LBME3,causal-graph1,male,30,English,United States of America,Left,R564578077900gxrw,1.0,,AND_Gate,Medium,Event,Bottom,Long,node3
7,9718.0,chain_LM,causal-graph1,male,30,English,United States of America,Left,R564578077900gxrw,1.0,,Chain,Medium,,,,node4
7,16263.0,branch_LTSE3,causal-graph1,male,30,English,United States of America,Left,R564578077900gxrw,1.0,,AND_Gate,Short,Event,Top,Long,node6
7,22523.99999999953,chain_LL,causal-graph1,male,30,English,United States of America,Left,R564578077900gxrw,1.0,,Chain,Long,,,,node2
7,20087.000000000466,branch_LTSE1,causal-graph1,male,30,English,United States of America,Left,R564578077900gxrw,1.0,,AND_Gate,Short,Event,Top,Short,node6
7,,instruction,image-button-response,male,30,English,United States of America,Left,R564578077900gxrw,,,,,,,,
7,9808.0,comment,survey-text,male,30,English,United States of America,Left,R564578077900gxrw,,"{""Q0"":""this is very very good study""}",,,,,,
8,,instruction,image-button-response,male,26,English,United States of America,Left,R563823157740gxrw,,,,,,,,
8,,instruction,causal-graph1,male,26,English,United States of America,Left,R563823157740gxrw,,,,,,,,
8,,instruction,causal-graph1,male,26,English,United States of America,Left,R563823157740gxrw,1.0,,,,,,,
8,,instruction,causal-graph1,male,26,English,United States of America,Left,R563823157740gxrw,,,,,,,,
8,,instruction,causal-graph1,male,26,English,United States of America,Left,R563823157740gxrw,1.0,,,,,,,
8,,instruction,image-button-response,male,26,English,United States of America,Left,R563823157740gxrw,,,,,,,,
8,,instruction,survey-multi-choice,male,26,English,United States of America,Left,R563823157740gxrw,,"{""Q0"":"" To decide what caused the activation of the GCM"",""Q1"":"" A GCM is a square marked with a star"",""Q2"":"" A GCM becomes active if at least one of its inputs is active"",""Q3"":"" You should click on just one detector in each network""}",,,,,,
8,,instruction,image-button-response,male,26,English,United States of America,Left,R563823157740gxrw,,,,,,,,
8,,instruction,image-button-response,male,26,English,United States of America,Left,R563823157740gxrw,,,,,,,,
8,,instruction,causal-graph1,male,26,English,United States of America,Left,R563823157740gxrw,,,,,,,,
8,,instruction,causal-graph1,male,26,English,United States of America,Left,R563823157740gxrw,1.0,,,,,,,
8,,instruction,causal-graph1,male,26,English,United States of America,Left,R563823157740gxrw,,,,,,,,
8,,instruction,causal-graph1,male,26,English,United States of America,Left,R563823157740gxrw,1.0,,,,,,,
8,,instruction,image-button-response,male,26,English,United States of America,Left,R563823157740gxrw,,,,,,,,
8,,instruction,survey-multi-choice,male,26,English,United States of America,Left,R563823157740gxrw,,"{""Q0"":"" To decide what caused the activation of the GCM"",""Q1"":"" A GCM is a square marked with a star"",""Q2"":"" A GCM becomes active if all of its inputs are active"",""Q3"":"" You should click on just one detector in each network""}",,,,,,
8,,instruction,image-button-response,male,26,English,United States of America,Left,R563823157740gxrw,,,,,,,,
8,17856.00000002887,branch_LBSE1,causal-graph1,male,26,English,United States of America,Left,R563823157740gxrw,1.0,,AND_Gate,Short,Event,Bottom,Short,node14
8,11675.000000046564,branch_LBSE2,causal-graph1,male,26,English,United States of America,Left,R563823157740gxrw,1.0,,AND_Gate,Short,Event,Bottom,Medium,node7
8,11920.00000004191,branch_LTLS,causal-graph1,male,26,English,United States of America,Left,R563823157740gxrw,1.0,,AND_Gate,Long,State,Top,,node10
8,12667.000000015832,branch_LTME1,causal-graph1,male,26,English,United States of America,Left,R563823157740gxrw,1.0,,AND_Gate,Medium,Event,Top,Short,node5
8,8508.000000030734,branch_LBSS,causal-graph1,male,26,English,United States of America,Left,R563823157740gxrw,1.0,,AND_Gate,Short,State,Bottom,,node14
8,9516.99999999255,branch_LBMS,causal-graph1,male,26,English,United States of America,Left,R563823157740gxrw,1.0,,AND_Gate,Medium,State,Bottom,,node12
8,8273.000000044703,chain_LS,causal-graph1,male,26,English,United States of America,Left,R563823157740gxrw,1.0,,Chain,Short,,,,node7
8,13707.999999984168,branch_LBLE1,causal-graph1,male,26,English,United States of America,Left,R563823157740gxrw,1.0,,AND_Gate,Long,Event,Bottom,Short,node10
8,15869.999999995343,branch_LBME3,causal-graph1,male,26,English,United States of America,Left,R563823157740gxrw,1.0,,AND_Gate,Medium,Event,Bottom,Long,node12
8,12430.000000051223,branch_LTME2,causal-graph1,male,26,English,United States of America,Left,R563823157740gxrw,1.0,,AND_Gate,Medium,Event,Top,Medium,node5
8,10729.000000050291,chain_LL,causal-graph1,male,26,English,United States of America,Left,R563823157740gxrw,1.0,,Chain,Long,,,,node3
8,20043.99999999441,branch_LTLE3,causal-graph1,male,26,English,United States of America,Left,R563823157740gxrw,1.0,,AND_Gate,Long,Event,Top,Long,node3
8,9285.999999963678,chain_LM,causal-graph1,male,26,English,United States of America,Left,R563823157740gxrw,1.0,,Chain,Medium,,,,node5
8,15468.999999924563,branch_LTLE2,causal-graph1,male,26,English,United States of America,Left,R563823157740gxrw,1.0,,AND_Gate,Long,Event,Top,Medium,node3
8,16339.000000036322,branch_LBSE3,causal-graph1,male,26,English,United States of America,Left,R563823157740gxrw,1.0,,AND_Gate,Short,Event,Bottom,Long,node14
8,,instruction,image-button-response,male,26,English,United States of America,Left,R563823157740gxrw,,,,,,,,
8,2021.999999997206,comment,survey-text,male,26,English,United States of America,Left,R563823157740gxrw,,"{""Q0"":""""}",,,,,,
9,,instruction,image-button-response,male,30,English,United States of America,Left,R563954487180gxrw,,,,,,,,
9,,instruction,causal-graph1,male,30,English,United States of America,Left,R563954487180gxrw,,,,,,,,
9,,instruction,causal-graph1,male,30,English,United States of America,Left,R563954487180gxrw,1.0,,,,,,,
9,,instruction,causal-graph1,male,30,English,United States of America,Left,R563954487180gxrw,,,,,,,,
9,,instruction,causal-graph1,male,30,English,United States of America,Left,R563954487180gxrw,2.0,,,,,,,
9,,instruction,image-button-response,male,30,English,United States of America,Left,R563954487180gxrw,,,,,,,,
9,,instruction,survey-multi-choice,male,30,English,United States of America,Left,R563954487180gxrw,,"{""Q0"":"" To decide what caused the activation of the GCM"",""Q1"":"" A GCM is a square marked with a star"",""Q2"":"" A GCM becomes active if all of its inputs are active"",""Q3"":"" You should click on just one detector in each network""}",,,,,,
9,,instruction,image-button-response,male,30,English,United States of America,Left,R563954487180gxrw,,,,,,,,
9,22913.000000000466,branch_LTME1,causal-graph1,male,30,English,United States of America,Left,R563954487180gxrw,2.0,,AND_Gate,Medium,Event,Top,Short,node12
9,15936.999999999884,branch_LTME2,causal-graph1,male,30,English,United States of America,Left,R563954487180gxrw,1.0,,AND_Gate,Medium,Event,Top,Medium,node15
9,11404.999999998836,chain_LM,causal-graph1,male,30,English,United States of America,Left,R563954487180gxrw,2.0,,Chain,Medium,,,,node6
9,16958.000000000524,branch_LBME3,causal-graph1,male,30,English,United States of America,Left,R563954487180gxrw,1.0,,AND_Gate,Medium,Event,Bottom,Long,node13
9,14470.999999999534,branch_LBLE1,causal-graph1,male,30,English,United States of America,Left,R563954487180gxrw,2.0,,AND_Gate,Long,Event,Bottom,Short,node15
9,12784.999999999884,branch_LBSS,causal-graph1,male,30,English,United States of America,Left,R563954487180gxrw,1.0,,AND_Gate,Short,State,Bottom,,node15
9,14788.999999998836,branch_LBSE2,causal-graph1,male,30,English,United States of America,Left,R563954487180gxrw,1.0,,AND_Gate,Short,Event,Bottom,Medium,node14
9,18784.999999999767,branch_LTLE2,causal-graph1,male,30,English,United States of America,Left,R563954487180gxrw,2.0,,AND_Gate,Long,Event,Top,Medium,node6
9,11819.000000001279,branch_LTLS,causal-graph1,male,30,English,United States of America,Left,R563954487180gxrw,1.0,,AND_Gate,Long,State,Top,,node13
9,12189.00000000035,branch_LBSE1,causal-graph1,male,30,English,United States of America,Left,R563954487180gxrw,1.0,,AND_Gate,Short,Event,Bottom,Short,node15
9,17100.00000000035,branch_LBSE3,causal-graph1,male,30,English,United States of America,Left,R563954487180gxrw,1.0,,AND_Gate,Short,Event,Bottom,Long,node14
9,10323.000000000351,chain_LL,causal-graph1,male,30,English,United States of America,Left,R563954487180gxrw,1.0,,Chain,Long,,,,node6
9,18201.999999999298,branch_LBLE3,causal-graph1,male,30,English,United States of America,Left,R563954487180gxrw,1.0,,AND_Gate,Long,Event,Bottom,Long,node14
9,12381.99999999965,branch_LBMS,causal-graph1,male,30,English,United States of America,Left,R563954487180gxrw,1.0,,AND_Gate,Medium,State,Bottom,,node13
9,9620.000000000815,chain_LS,causal-graph1,male,30,English,United States of America,Left,R563954487180gxrw,1.0,,Chain,Short,,,,node7
9,,instruction,image-button-response,male,30,English,United States of America,Left,R563954487180gxrw,,,,,,,,
9,49149.99999999965,comment,survey-text,male,30,English,United States of America,Left,R563954487180gxrw,,"{""Q0"":""mabelmartinez713@gmail.com""}",,,,,,
10,,instruction,image-button-response,male,31,english,American Samoa,Left,R561552147430gxrw,,,,,,,,
10,,instruction,causal-graph1,male,31,english,American Samoa,Left,R561552147430gxrw,,,,,,,,
10,,instruction,causal-graph1,male,31,english,American Samoa,Left,R561552147430gxrw,1.0,,,,,,,
10,,instruction,causal-graph1,male,31,english,American Samoa,Left,R561552147430gxrw,,,,,,,,
10,,instruction,causal-graph1,male,31,english,American Samoa,Left,R561552147430gxrw,1.0,,,,,,,
10,,instruction,image-button-response,male,31,english,American Samoa,Left,R561552147430gxrw,,,,,,,,
10,,instruction,survey-multi-choice,male,31,english,American Samoa,Left,R561552147430gxrw,,"{""Q0"":"" To decide what caused the activation of the GCM"",""Q1"":"" A GCM is a square marked with a star"",""Q2"":"" A GCM becomes active if at least one of its inputs is active"",""Q3"":"" Some detectors are not clickable""}",,,,,,
10,,instruction,image-button-response,male,31,english,American Samoa,Left,R561552147430gxrw,,,,,,,,
10,,instruction,image-button-response,male,31,english,American Samoa,Left,R561552147430gxrw,,,,,,,,
10,,instruction,causal-graph1,male,31,english,American Samoa,Left,R561552147430gxrw,,,,,,,,
10,,instruction,causal-graph1,male,31,english,American Samoa,Left,R561552147430gxrw,1.0,,,,,,,
10,,instruction,causal-graph1,male,31,english,American Samoa,Left,R561552147430gxrw,,,,,,,,
10,,instruction,causal-graph1,male,31,english,American Samoa,Left,R561552147430gxrw,1.0,,,,,,,
10,,instruction,image-button-response,male,31,english,American Samoa,Left,R561552147430gxrw,,,,,,,,
10,,instruction,survey-multi-choice,male,31,english,American Samoa,Left,R561552147430gxrw,,"{""Q0"":"" To decide what caused the activation of the GCM"",""Q1"":"" A GCM is a square marked with a star"",""Q2"":"" A GCM becomes active if all of its inputs are active"",""Q3"":"" Some detectors are not clickable""}",,,,,,
10,,instruction,image-button-response,male,31,english,American Samoa,Left,R561552147430gxrw,,,,,,,,
10,,instruction,image-button-response,male,31,english,American Samoa,Left,R561552147430gxrw,,,,,,,,
10,,instruction,causal-graph1,male,31,english,American Samoa,Left,R561552147430gxrw,,,,,,,,
10,,instruction,causal-graph1,male,31,english,American Samoa,Left,R561552147430gxrw,1.0,,,,,,,
10,,instruction,causal-graph1,male,31,english,American Samoa,Left,R561552147430gxrw,,,,,,,,
10,,instruction,causal-graph1,male,31,english,American Samoa,Left,R561552147430gxrw,1.0,,,,,,,
10,,instruction,image-button-response,male,31,english,American Samoa,Left,R561552147430gxrw,,,,,,,,
10,,instruction,survey-multi-choice,male,31,english,American Samoa,Left,R561552147430gxrw,,"{""Q0"":"" To decide what caused the activation of the GCM"",""Q1"":"" A GCM is a square marked with a star"",""Q2"":"" A GCM becomes active if all of its inputs are active"",""Q3"":"" You should assign a number to every detector in every network""}",,,,,,
10,,instruction,image-button-response,male,31,english,American Samoa,Left,R561552147430gxrw,,,,,,,,
10,,instruction,image-button-response,male,31,english,American Samoa,Left,R561552147430gxrw,,,,,,,,
10,,instruction,causal-graph1,male,31,english,American Samoa,Left,R561552147430gxrw,,,,,,,,
10,,instruction,causal-graph1,male,31,english,American Samoa,Left,R561552147430gxrw,1.0,,,,,,,
10,,instruction,causal-graph1,male,31,english,American Samoa,Left,R561552147430gxrw,,,,,,,,
10,,instruction,causal-graph1,male,31,english,American Samoa,Left,R561552147430gxrw,1.0,,,,,,,
10,,instruction,image-button-response,male,31,english,American Samoa,Left,R561552147430gxrw,,,,,,,,
10,,instruction,survey-multi-choice,male,31,english,American Samoa,Left,R561552147430gxrw,,"{""Q0"":"" To decide what caused the activation of the GCM"",""Q1"":"" A GCM is a square marked with a star"",""Q2"":"" A GCM becomes active if all of its inputs are active"",""Q3"":"" You should click on just one detector in each network""}",,,,,,
10,,instruction,image-button-response,male,31,english,American Samoa,Left,R561552147430gxrw,,,,,,,,
10,45860.60999997426,branch_LBSE2,causal-graph1,male,31,english,American Samoa,Left,R561552147430gxrw,1.0,,AND_Gate,Short,Event,Bottom,Medium,node7
10,29238.614999921992,branch_LTMS,causal-graph1,male,31,english,American Samoa,Left,R561552147430gxrw,1.0,,AND_Gate,Medium,State,Top,,node11
10,22099.57000007853,chain_LM,causal-graph1,male,31,english,American Samoa,Left,R561552147430gxrw,1.0,,Chain,Medium,,,,node5
10,25484.799999976534,branch_LTLE3,causal-graph1,male,31,english,American Samoa,Left,R561552147430gxrw,1.0,,AND_Gate,Long,Event,Top,Long,node3
10,18775.30000009574,branch_LTSS,causal-graph1,male,31,english,American Samoa,Left,R561552147430gxrw,1.0,,AND_Gate,Short,State,Top,,node15
10,15787.424999987708,chain_LS,causal-graph1,male,31,english,American Samoa,Left,R561552147430gxrw,1.0,,Chain,Short,,,,node8
10,15331.355000031182,branch_LTLE1,causal-graph1,male,31,english,American Samoa,Left,R561552147430gxrw,1.0,,AND_Gate,Long,Event,Top,Short,node15
10,16274.259999976492,branch_LTME2,causal-graph1,male,31,english,American Samoa,Left,R561552147430gxrw,1.0,,AND_Gate,Medium,Event,Top,Medium,node15
10,46689.70500002615,branch_LTME1,causal-graph1,male,31,english,American Samoa,Left,R561552147430gxrw,1.0,,AND_Gate,Medium,Event,Top,Short,node15
10,17065.094999969006,chain_LL,causal-graph1,male,31,english,American Samoa,Left,R561552147430gxrw,1.0,,Chain,Long,,,,node8
10,17271.840000059456,branch_LBME3,causal-graph1,male,31,english,American Samoa,Left,R561552147430gxrw,1.0,,AND_Gate,Medium,Event,Bottom,Long,node15
10,10692.504999926314,branch_LBSE1,causal-graph1,male,31,english,American Samoa,Left,R561552147430gxrw,1.0,,AND_Gate,Short,Event,Bottom,Short,node15
10,15507.589999935592,branch_LTSE3,causal-graph1,male,31,english,American Samoa,Left,R561552147430gxrw,1.0,,AND_Gate,Short,Event,Top,Long,node15
10,15075.50000003539,branch_LTLE2,causal-graph1,male,31,english,American Samoa,Left,R561552147430gxrw,1.0,,AND_Gate,Long,Event,Top,Medium,node15
10,13086.145000066608,branch_LBLS,causal-graph1,male,31,english,American Samoa,Left,R561552147430gxrw,1.0,,AND_Gate,Long,State,Bottom,,node15
10,,instruction,image-button-response,male,31,english,American Samoa,Left,R561552147430gxrw,,,,,,,,
10,103992.65999998896,comment,survey-text,male,31,english,American Samoa,Left,R561552147430gxrw,,"{""Q0"":""good""}",,,,,,
11,,instruction,image-button-response,male,57,ENGLISH,United States of America,Left,R568544927460gxrw,,,,,,,,
11,,instruction,causal-graph1,male,57,ENGLISH,United States of America,Left,R568544927460gxrw,,,,,,,,
11,,instruction,causal-graph1,male,57,ENGLISH,United States of America,Left,R568544927460gxrw,1.0,,,,,,,
11,,instruction,causal-graph1,male,57,ENGLISH,United States of America,Left,R568544927460gxrw,,,,,,,,
11,,instruction,causal-graph1,male,57,ENGLISH,United States of America,Left,R568544927460gxrw,1.0,,,,,,,
11,,instruction,image-button-response,male,57,ENGLISH,United States of America,Left,R568544927460gxrw,,,,,,,,
11,,instruction,survey-multi-choice,male,57,ENGLISH,United States of America,Left,R568544927460gxrw,,"{""Q0"":"" To decide what caused the activation of the GCM"",""Q1"":"" A GCM is a square marked with a star"",""Q2"":"" A GCM becomes active if all of its inputs are active"",""Q3"":"" You should click on just one detector in each network""}",,,,,,
11,,instruction,image-button-response,male,57,ENGLISH,United States of America,Left,R568544927460gxrw,,,,,,,,
11,79525.93000000343,branch_LTLS,causal-graph1,male,57,ENGLISH,United States of America,Left,R568544927460gxrw,1.0,,AND_Gate,Long,State,Top,,node10
11,29967.63500012457,branch_LBME3,causal-graph1,male,57,ENGLISH,United States of America,Left,R568544927460gxrw,1.0,,AND_Gate,Medium,Event,Bottom,Long,node12
11,21986.945000011478,branch_LTME1,causal-graph1,male,57,ENGLISH,United States of America,Left,R568544927460gxrw,1.0,,AND_Gate,Medium,Event,Top,Short,node6
11,21802.154999924824,branch_LTME2,causal-graph1,male,57,ENGLISH,United States of America,Left,R568544927460gxrw,1.0,,AND_Gate,Medium,Event,Top,Medium,node5
11,24249.370000092313,branch_LTSE2,causal-graph1,male,57,ENGLISH,United States of America,Left,R568544927460gxrw,1.0,,AND_Gate,Short,Event,Top,Medium,node5
11,38789.61999993771,branch_LTLE3,causal-graph1,male,57,ENGLISH,United States of America,Left,R568544927460gxrw,1.0,,AND_Gate,Long,Event,Top,Long,node4
11,16425.775000127032,branch_LBLE2,causal-graph1,male,57,ENGLISH,United States of America,Left,R568544927460gxrw,1.0,,AND_Gate,Long,Event,Bottom,Medium,node3
11,12091.345000080764,branch_LTSE1,causal-graph1,male,57,ENGLISH,United States of America,Left,R568544927460gxrw,1.0,,AND_Gate,Short,Event,Top,Short,node12
11,14626.285000005735,branch_LTLE1,causal-graph1,male,57,ENGLISH,United States of America,Left,R568544927460gxrw,1.0,,AND_Gate,Long,Event,Top,Short,node11
11,25281.335000181567,branch_LTSE3,causal-graph1,male,57,ENGLISH,United States of America,Left,R568544927460gxrw,1.0,,AND_Gate,Short,Event,Top,Long,node14
11,9475.43999995105,branch_LTSS,causal-graph1,male,57,ENGLISH,United States of America,Left,R568544927460gxrw,1.0,,AND_Gate,Short,State,Top,,node14
11,10120.224999962376,branch_LBMS,causal-graph1,male,57,ENGLISH,United States of America,Left,R568544927460gxrw,1.0,,AND_Gate,Medium,State,Bottom,,node5
11,18263.125000055883,chain_LL,causal-graph1,male,57,ENGLISH,United States of America,Left,R568544927460gxrw,1.0,,Chain,Long,,,,node4
11,9247.179999947548,chain_LS,causal-graph1,male,57,ENGLISH,United States of America,Left,R568544927460gxrw,1.0,,Chain,Short,,,,node7
11,12110.28499994427,chain_LM,causal-graph1,male,57,ENGLISH,United States of America,Left,R568544927460gxrw,1.0,,Chain,Medium,,,,node5
11,,instruction,image-button-response,male,57,ENGLISH,United States of America,Left,R568544927460gxrw,,,,,,,,
11,24225.22499994375,comment,survey-text,male,57,ENGLISH,United States of America,Left,R568544927460gxrw,,"{""Q0"":""GOOD""}",,,,,,
12,,instruction,image-button-response,female,32,English,United States of America,Right,R562653127930gxrw,,,,,,,,
12,,instruction,causal-graph1,female,32,English,United States of America,Right,R562653127930gxrw,,,,,,,,
12,,instruction,causal-graph1,female,32,English,United States of America,Right,R562653127930gxrw,1.0,,,,,,,
12,,instruction,causal-graph1,female,32,English,United States of America,Right,R562653127930gxrw,,,,,,,,
12,,instruction,causal-graph1,female,32,English,United States of America,Right,R562653127930gxrw,1.0,,,,,,,
12,,instruction,image-button-response,female,32,English,United States of America,Right,R562653127930gxrw,,,,,,,,
12,,instruction,survey-multi-choice,female,32,English,United States of America,Right,R562653127930gxrw,,"{""Q0"":"" To find out if the Gauge of Critical Moment (GCM) is activated or not"",""Q1"":""A GCM is a square without any mark"",""Q2"":"" A GCM becomes active if at least one of its inputs is active"",""Q3"":"" You should click on just one detector in each network""}",,,,,,
12,,instruction,image-button-response,female,32,English,United States of America,Right,R562653127930gxrw,,,,,,,,
12,,instruction,image-button-response,female,32,English,United States of America,Right,R562653127930gxrw,,,,,,,,
12,,instruction,causal-graph1,female,32,English,United States of America,Right,R562653127930gxrw,,,,,,,,
12,,instruction,causal-graph1,female,32,English,United States of America,Right,R562653127930gxrw,1.0,,,,,,,
12,,instruction,causal-graph1,female,32,English,United States of America,Right,R562653127930gxrw,,,,,,,,
12,,instruction,causal-graph1,female,32,English,United States of America,Right,R562653127930gxrw,1.0,,,,,,,
12,,instruction,image-button-response,female,32,English,United States of America,Right,R562653127930gxrw,,,,,,,,
12,,instruction,survey-multi-choice,female,32,English,United States of America,Right,R562653127930gxrw,,"{""Q0"":"" To find out if the Gauge of Critical Moment (GCM) is activated or not"",""Q1"":"" A GCM is a square marked with a star"",""Q2"":"" A GCM becomes active if all of its inputs are active"",""Q3"":"" You should click on just one detector in each network""}",,,,,,
12,,instruction,image-button-response,female,32,English,United States of America,Right,R562653127930gxrw,,,,,,,,
12,,instruction,image-button-response,female,32,English,United States of America,Right,R562653127930gxrw,,,,,,,,
12,,instruction,causal-graph1,female,32,English,United States of America,Right,R562653127930gxrw,,,,,,,,
12,,instruction,causal-graph1,female,32,English,United States of America,Right,R562653127930gxrw,1.0,,,,,,,
12,,instruction,causal-graph1,female,32,English,United States of America,Right,R562653127930gxrw,,,,,,,,
12,,instruction,causal-graph1,female,32,English,United States of America,Right,R562653127930gxrw,1.0,,,,,,,
12,,instruction,image-button-response,female,32,English,United States of America,Right,R562653127930gxrw,,,,,,,,
12,,instruction,survey-multi-choice,female,32,English,United States of America,Right,R562653127930gxrw,,"{""Q0"":"" To decide what causes the activation of each detector"",""Q1"":"" A GCM is a square marked with a star"",""Q2"":"" A GCM becomes active if all of its inputs are active"",""Q3"":"" You should click on just one detector in each network""}",,,,,,
12,,instruction,image-button-response,female,32,English,United States of America,Right,R562653127930gxrw,,,,,,,,
12,,instruction,image-button-response,female,32,English,United States of America,Right,R562653127930gxrw,,,,,,,,
12,,instruction,causal-graph1,female,32,English,United States of America,Right,R562653127930gxrw,,,,,,,,
12,,instruction,causal-graph1,female,32,English,United States of America,Right,R562653127930gxrw,1.0,,,,,,,
12,,instruction,causal-graph1,female,32,English,United States of America,Right,R562653127930gxrw,,,,,,,,
12,,instruction,causal-graph1,female,32,English,United States of America,Right,R562653127930gxrw,1.0,,,,,,,
12,,instruction,image-button-response,female,32,English,United States of America,Right,R562653127930gxrw,,,,,,,,
12,,instruction,survey-multi-choice,female,32,English,United States of America,Right,R562653127930gxrw,,"{""Q0"":"" To find out if the Gauge of Critical Moment (GCM) is activated or not"",""Q1"":"" A GCM is a square marked with a star"",""Q2"":"" A GCM becomes active if all of its inputs are active"",""Q3"":"" You should assign a number to every detector in every network""}",,,,,,
12,,instruction,image-button-response,female,32,English,United States of America,Right,R562653127930gxrw,,,,,,,,
12,,instruction,image-button-response,female,32,English,United States of America,Right,R562653127930gxrw,,,,,,,,
12,,instruction,causal-graph1,female,32,English,United States of America,Right,R562653127930gxrw,,,,,,,,
12,,instruction,causal-graph1,female,32,English,United States of America,Right,R562653127930gxrw,1.0,,,,,,,
12,,instruction,causal-graph1,female,32,English,United States of America,Right,R562653127930gxrw,,,,,,,,
12,,instruction,causal-graph1,female,32,English,United States of America,Right,R562653127930gxrw,1.0,,,,,,,
12,,instruction,image-button-response,female,32,English,United States of America,Right,R562653127930gxrw,,,,,,,,
12,,instruction,survey-multi-choice,female,32,English,United States of America,Right,R562653127930gxrw,,"{""Q0"":"" To decide what caused the activation of the GCM"",""Q1"":"" A GCM is a square marked with a star"",""Q2"":"" A GCM becomes active if all of its inputs are active"",""Q3"":"" You should assign a number to every detector in every network""}",,,,,,
12,,instruction,image-button-response,female,32,English,United States of America,Right,R562653127930gxrw,,,,,,,,
12,,instruction,image-button-response,female,32,English,United States of America,Right,R562653127930gxrw,,,,,,,,
12,,instruction,causal-graph1,female,32,English,United States of America,Right,R562653127930gxrw,,,,,,,,
12,,instruction,causal-graph1,female,32,English,United States of America,Right,R562653127930gxrw,1.0,,,,,,,
12,,instruction,causal-graph1,female,32,English,United States of America,Right,R562653127930gxrw,,,,,,,,
12,,instruction,causal-graph1,female,32,English,United States of America,Right,R562653127930gxrw,1.0,,,,,,,
12,,instruction,image-button-response,female,32,English,United States of America,Right,R562653127930gxrw,,,,,,,,
12,,instruction,survey-multi-choice,female,32,English,United States of America,Right,R562653127930gxrw,,"{""Q0"":"" To find out if the Gauge of Critical Moment (GCM) is activated or not"",""Q1"":"" A GCM is a square marked with a star"",""Q2"":"" A GCM becomes active if all of its inputs are active"",""Q3"":"" You should assign a number to every detector in every network""}",,,,,,
12,,instruction,image-button-response,female,32,English,United States of America,Right,R562653127930gxrw,,,,,,,,
12,,instruction,image-button-response,female,32,English,United States of America,Right,R562653127930gxrw,,,,,,,,
12,,instruction,causal-graph1,female,32,English,United States of America,Right,R562653127930gxrw,,,,,,,,
12,,instruction,causal-graph1,female,32,English,United States of America,Right,R562653127930gxrw,1.0,,,,,,,
12,,instruction,causal-graph1,female,32,English,United States of America,Right,R562653127930gxrw,,,,,,,,
12,,instruction,causal-graph1,female,32,English,United States of America,Right,R562653127930gxrw,1.0,,,,,,,
12,,instruction,image-button-response,female,32,English,United States of America,Right,R562653127930gxrw,,,,,,,,
12,,instruction,survey-multi-choice,female,32,English,United States of America,Right,R562653127930gxrw,,"{""Q0"":"" To find out if the Gauge of Critical Moment (GCM) is activated or not"",""Q1"":"" A GCM is a square marked with a star"",""Q2"":"" A GCM becomes active if all of its inputs are active"",""Q3"":"" You should click on just one detector in each network""}",,,,,,
12,,instruction,image-button-response,female,32,English,United States of America,Right,R562653127930gxrw,,,,,,,,
12,,instruction,image-button-response,female,32,English,United States of America,Right,R562653127930gxrw,,,,,,,,
12,,instruction,causal-graph1,female,32,English,United States of America,Right,R562653127930gxrw,,,,,,,,
12,,instruction,causal-graph1,female,32,English,United States of America,Right,R562653127930gxrw,1.0,,,,,,,
12,,instruction,causal-graph1,female,32,English,United States of America,Right,R562653127930gxrw,,,,,,,,
12,,instruction,causal-graph1,female,32,English,United States of America,Right,R562653127930gxrw,1.0,,,,,,,
12,,instruction,image-button-response,female,32,English,United States of America,Right,R562653127930gxrw,,,,,,,,
12,,instruction,survey-multi-choice,female,32,English,United States of America,Right,R562653127930gxrw,,"{""Q0"":"" To find out if the Gauge of Critical Moment (GCM) is activated or not"",""Q1"":"" A GCM is a square marked with a star"",""Q2"":"" A GCM becomes active if all of its inputs are active"",""Q3"":"" Some detectors are not clickable""}",,,,,,
12,,instruction,image-button-response,female,32,English,United States of America,Right,R562653127930gxrw,,,,,,,,
12,,instruction,image-button-response,female,32,English,United States of America,Right,R562653127930gxrw,,,,,,,,
12,,instruction,causal-graph1,female,32,English,United States of America,Right,R562653127930gxrw,,,,,,,,
12,,instruction,causal-graph1,female,32,English,United States of America,Right,R562653127930gxrw,1.0,,,,,,,
12,,instruction,causal-graph1,female,32,English,United States of America,Right,R562653127930gxrw,,,,,,,,
12,,instruction,causal-graph1,female,32,English,United States of America,Right,R562653127930gxrw,1.0,,,,,,,
12,,instruction,image-button-response,female,32,English,United States of America,Right,R562653127930gxrw,,,,,,,,
12,,instruction,survey-multi-choice,female,32,English,United States of America,Right,R562653127930gxrw,,"{""Q0"":"" To find out if the Gauge of Critical Moment (GCM) is activated or not"",""Q1"":"" A GCM is a square marked with a star"",""Q2"":"" A GCM becomes active if all of its inputs are active"",""Q3"":"" Some detectors are not clickable""}",,,,,,
12,,instruction,image-button-response,female,32,English,United States of America,Right,R562653127930gxrw,,,,,,,,
12,,instruction,image-button-response,female,32,English,United States of America,Right,R562653127930gxrw,,,,,,,,
12,,instruction,causal-graph1,female,32,English,United States of America,Right,R562653127930gxrw,,,,,,,,
12,,instruction,causal-graph1,female,32,English,United States of America,Right,R562653127930gxrw,1.0,,,,,,,
12,,instruction,causal-graph1,female,32,English,United States of America,Right,R562653127930gxrw,,,,,,,,
12,,instruction,causal-graph1,female,32,English,United States of America,Right,R562653127930gxrw,1.0,,,,,,,
12,,instruction,image-button-response,female,32,English,United States of America,Right,R562653127930gxrw,,,,,,,,
12,,instruction,survey-multi-choice,female,32,English,United States of America,Right,R562653127930gxrw,,"{""Q0"":"" To decide what caused the activation of the GCM"",""Q1"":"" A GCM is a square marked with a star"",""Q2"":"" A GCM becomes active if all of its inputs are active"",""Q3"":"" You should assign a number to every detector in every network""}",,,,,,
12,,instruction,image-button-response,female,32,English,United States of America,Right,R562653127930gxrw,,,,,,,,
12,,instruction,image-button-response,female,32,English,United States of America,Right,R562653127930gxrw,,,,,,,,
12,,instruction,causal-graph1,female,32,English,United States of America,Right,R562653127930gxrw,,,,,,,,
12,,instruction,causal-graph1,female,32,English,United States of America,Right,R562653127930gxrw,1.0,,,,,,,
12,,instruction,causal-graph1,female,32,English,United States of America,Right,R562653127930gxrw,,,,,,,,
12,,instruction,causal-graph1,female,32,English,United States of America,Right,R562653127930gxrw,1.0,,,,,,,
12,,instruction,image-button-response,female,32,English,United States of America,Right,R562653127930gxrw,,,,,,,,
12,,instruction,survey-multi-choice,female,32,English,United States of America,Right,R562653127930gxrw,,"{""Q0"":"" To decide what caused the activation of the GCM"",""Q1"":"" A GCM is a square marked with a star"",""Q2"":"" A GCM becomes active if all of its inputs are active"",""Q3"":"" You should click on just one detector in each network""}",,,,,,
12,,instruction,image-button-response,female,32,English,United States of America,Right,R562653127930gxrw,,,,,,,,
12,26162.099999957718,chain_RM,causal-graph1,female,32,English,United States of America,Right,R562653127930gxrw,1.0,,Chain,Medium,,,,node4
12,17549.514999962412,branch_RBMS,causal-graph1,female,32,English,United States of America,Right,R562653127930gxrw,1.0,,AND_Gate,Medium,State,Bottom,,node5
12,9551.89000000246,chain_RS,causal-graph1,female,32,English,United States of America,Right,R562653127930gxrw,1.0,,Chain,Short,,,,node7
12,15517.594999982975,chain_RL,causal-graph1,female,32,English,United States of America,Right,R562653127930gxrw,1.0,,Chain,Long,,,,node3
12,11927.284999983383,branch_RBSS,causal-graph1,female,32,English,United States of America,Right,R562653127930gxrw,1.0,,AND_Gate,Short,State,Bottom,,node7
12,10453.905000002123,branch_RTLS,causal-graph1,female,32,English,United States of America,Right,R562653127930gxrw,1.0,,AND_Gate,Long,State,Top,,node10
12,17782.415000023317,branch_RBLE3,causal-graph1,female,32,English,United States of America,Right,R562653127930gxrw,1.0,,AND_Gate,Long,Event,Bottom,Long,node10
12,21590.45000001788,branch_RBME3,causal-graph1,female,32,English,United States of America,Right,R562653127930gxrw,1.0,,AND_Gate,Medium,Event,Bottom,Long,node12
12,13654.764999984764,branch_RBLE1,causal-graph1,female,32,English,United States of America,Right,R562653127930gxrw,1.0,,AND_Gate,Long,Event,Bottom,Short,node10
12,16638.660000055093,branch_RTLE2,causal-graph1,female,32,English,United States of America,Right,R562653127930gxrw,1.0,,AND_Gate,Long,Event,Top,Medium,node10
12,14020.829999935813,branch_RBSE3,causal-graph1,female,32,English,United States of America,Right,R562653127930gxrw,1.0,,AND_Gate,Short,Event,Bottom,Long,node14
12,14467.665000003764,branch_RTME1,causal-graph1,female,32,English,United States of America,Right,R562653127930gxrw,1.0,,AND_Gate,Medium,Event,Top,Short,node12
12,10791.190000018105,branch_RBSE2,causal-graph1,female,32,English,United States of America,Right,R562653127930gxrw,1.0,,AND_Gate,Short,Event,Bottom,Medium,node7
12,9319.270000094548,branch_RBSE1,causal-graph1,female,32,English,United States of America,Right,R562653127930gxrw,1.0,,AND_Gate,Short,Event,Bottom,Short,node7
12,13829.56999994349,branch_RBME2,causal-graph1,female,32,English,United States of America,Right,R562653127930gxrw,1.0,,AND_Gate,Medium,Event,Bottom,Medium,node5
12,,instruction,image-button-response,female,32,English,United States of America,Right,R562653127930gxrw,,,,,,,,
12,16031.964999972844,comment,survey-text,female,32,English,United States of America,Right,R562653127930gxrw,,"{""Q0"":""""}",,,,,,
13,,instruction,image-button-response,male,32,english,United States of America,Right,R566190997320gxrw,,,,,,,,
13,,instruction,causal-graph1,male,32,english,United States of America,Right,R566190997320gxrw,,,,,,,,
13,,instruction,causal-graph1,male,32,english,United States of America,Right,R566190997320gxrw,1.0,,,,,,,
13,,instruction,causal-graph1,male,32,english,United States of America,Right,R566190997320gxrw,,,,,,,,
13,,instruction,causal-graph1,male,32,english,United States of America,Right,R566190997320gxrw,1.0,,,,,,,
13,,instruction,image-button-response,male,32,english,United States of America,Right,R566190997320gxrw,,,,,,,,
13,,instruction,survey-multi-choice,male,32,english,United States of America,Right,R566190997320gxrw,,"{""Q0"":"" To decide what causes the activation of each detector"",""Q1"":"" A GCM is a square marked with a star"",""Q2"":"" A GCM becomes active if all of its inputs are active"",""Q3"":"" You should click on just one detector in each network""}",,,,,,
13,,instruction,image-button-response,male,32,english,United States of America,Right,R566190997320gxrw,,,,,,,,
13,,instruction,image-button-response,male,32,english,United States of America,Right,R566190997320gxrw,,,,,,,,
13,,instruction,causal-graph1,male,32,english,United States of America,Right,R566190997320gxrw,,,,,,,,
13,,instruction,causal-graph1,male,32,english,United States of America,Right,R566190997320gxrw,2.0,,,,,,,
13,,instruction,causal-graph1,male,32,english,United States of America,Right,R566190997320gxrw,,,,,,,,
13,,instruction,causal-graph1,male,32,english,United States of America,Right,R566190997320gxrw,1.0,,,,,,,
13,,instruction,image-button-response,male,32,english,United States of America,Right,R566190997320gxrw,,,,,,,,
13,,instruction,survey-multi-choice,male,32,english,United States of America,Right,R566190997320gxrw,,"{""Q0"":"" To decide what caused the activation of the GCM"",""Q1"":"" A GCM is a square marked with a star"",""Q2"":"" A GCM becomes active if all of its inputs are active"",""Q3"":"" You should click on just one detector in each network""}",,,,,,
13,,instruction,image-button-response,male,32,english,United States of America,Right,R566190997320gxrw,,,,,,,,
13,25317.8899999985,branch_RBLE1,causal-graph1,male,32,english,United States of America,Right,R566190997320gxrw,2.0,,AND_Gate,Long,Event,Bottom,Short,node13
13,19246.930000001103,branch_RBME2,causal-graph1,male,32,english,United States of America,Right,R566190997320gxrw,1.0,,AND_Gate,Medium,Event,Bottom,Medium,node15
13,50267.39500000258,branch_RBLS,causal-graph1,male,32,english,United States of America,Right,R566190997320gxrw,1.0,,AND_Gate,Long,State,Bottom,,node3
13,11533.709999996003,chain_RL,causal-graph1,male,32,english,United States of America,Right,R566190997320gxrw,1.0,,Chain,Long,,,,node7
13,26459.26500000502,branch_RBME1,causal-graph1,male,32,english,United States of America,Right,R566190997320gxrw,1.0,,AND_Gate,Medium,Event,Bottom,Short,node15
13,20937.21500000544,branch_RTMS,causal-graph1,male,32,english,United States of America,Right,R566190997320gxrw,1.0,,AND_Gate,Medium,State,Top,,node6
13,9426.615000003947,chain_RM,causal-graph1,male,32,english,United States of America,Right,R566190997320gxrw,1.0,,Chain,Medium,,,,node5
13,14632.769999996526,chain_RS,causal-graph1,male,32,english,United States of America,Right,R566190997320gxrw,1.0,,Chain,Short,,,,node7
13,25265.740000002555,branch_RTLE2,causal-graph1,male,32,english,United States of America,Right,R566190997320gxrw,1.0,,AND_Gate,Long,Event,Top,Medium,node14
13,18390.400000003865,branch_RTME3,causal-graph1,male,32,english,United States of America,Right,R566190997320gxrw,1.0,,AND_Gate,Medium,Event,Top,Long,node12
13,17918.349999999857,branch_RTSE3,causal-graph1,male,32,english,United States of America,Right,R566190997320gxrw,1.0,,AND_Gate,Short,Event,Top,Long,node7
13,13718.159999996655,branch_RBSE2,causal-graph1,male,32,english,United States of America,Right,R566190997320gxrw,1.0,,AND_Gate,Short,Event,Bottom,Medium,node15
13,17202.96000000229,branch_RTLE3,causal-graph1,male,32,english,United States of America,Right,R566190997320gxrw,1.0,,AND_Gate,Long,Event,Top,Long,node15
13,11460.650000001071,branch_RTSS,causal-graph1,male,32,english,United States of America,Right,R566190997320gxrw,1.0,,AND_Gate,Short,State,Top,,node14
13,24851.819999996107,branch_RBSE1,causal-graph1,male,32,english,United States of America,Right,R566190997320gxrw,1.0,,AND_Gate,Short,Event,Bottom,Short,node15
13,,instruction,image-button-response,male,32,english,United States of America,Right,R566190997320gxrw,,,,,,,,
13,56283.07000000496,comment,survey-text,male,32,english,United States of America,Right,R566190997320gxrw,,"{""Q0"":""thank you""}",,,,,,
14,,instruction,image-button-response,female,40,english,United States of America,Right,R565694367980gxrw,,,,,,,,
14,,instruction,causal-graph1,female,40,english,United States of America,Right,R565694367980gxrw,,,,,,,,
14,,instruction,causal-graph1,female,40,english,United States of America,Right,R565694367980gxrw,1.0,,,,,,,
14,,instruction,causal-graph1,female,40,english,United States of America,Right,R565694367980gxrw,,,,,,,,
14,,instruction,causal-graph1,female,40,english,United States of America,Right,R565694367980gxrw,1.0,,,,,,,
14,,instruction,image-button-response,female,40,english,United States of America,Right,R565694367980gxrw,,,,,,,,
14,,instruction,survey-multi-choice,female,40,english,United States of America,Right,R565694367980gxrw,,"{""Q0"":"" To find out if the Gauge of Critical Moment (GCM) is activated or not"",""Q1"":"" A GCM is a square marked with a star"",""Q2"":"" A GCM becomes active if all of its inputs are active"",""Q3"":"" Some detectors are not clickable""}",,,,,,
14,,instruction,image-button-response,female,40,english,United States of America,Right,R565694367980gxrw,,,,,,,,
14,,instruction,image-button-response,female,40,english,United States of America,Right,R565694367980gxrw,,,,,,,,
14,,instruction,causal-graph1,female,40,english,United States of America,Right,R565694367980gxrw,,,,,,,,
14,,instruction,causal-graph1,female,40,english,United States of America,Right,R565694367980gxrw,1.0,,,,,,,
14,,instruction,causal-graph1,female,40,english,United States of America,Right,R565694367980gxrw,,,,,,,,
14,,instruction,causal-graph1,female,40,english,United States of America,Right,R565694367980gxrw,1.0,,,,,,,
14,,instruction,image-button-response,female,40,english,United States of America,Right,R565694367980gxrw,,,,,,,,
14,,instruction,survey-multi-choice,female,40,english,United States of America,Right,R565694367980gxrw,,"{""Q0"":"" To decide what caused the activation of the GCM"",""Q1"":"" A GCM is a square marked with a star"",""Q2"":"" A GCM becomes active if all of its inputs are active"",""Q3"":"" Some detectors are not clickable""}",,,,,,
14,,instruction,image-button-response,female,40,english,United States of America,Right,R565694367980gxrw,,,,,,,,
14,,instruction,image-button-response,female,40,english,United States of America,Right,R565694367980gxrw,,,,,,,,
14,,instruction,causal-graph1,female,40,english,United States of America,Right,R565694367980gxrw,,,,,,,,
14,,instruction,causal-graph1,female,40,english,United States of America,Right,R565694367980gxrw,1.0,,,,,,,
14,,instruction,causal-graph1,female,40,english,United States of America,Right,R565694367980gxrw,,,,,,,,
14,,instruction,causal-graph1,female,40,english,United States of America,Right,R565694367980gxrw,1.0,,,,,,,
14,,instruction,image-button-response,female,40,english,United States of America,Right,R565694367980gxrw,,,,,,,,
14,,instruction,survey-multi-choice,female,40,english,United States of America,Right,R565694367980gxrw,,"{""Q0"":"" To decide what caused the activation of the GCM"",""Q1"":"" A GCM is a square marked with a star"",""Q2"":"" A GCM becomes active if all of its inputs are active"",""Q3"":"" You should click on just one detector in each network""}",,,,,,
14,,instruction,image-button-response,female,40,english,United States of America,Right,R565694367980gxrw,,,,,,,,
14,44352.96499999822,chain_RL,causal-graph1,female,40,english,United States of America,Right,R565694367980gxrw,1.0,,Chain,Long,,,,node3
14,19223.870000016177,branch_RBLS,causal-graph1,female,40,english,United States of America,Right,R565694367980gxrw,1.0,,AND_Gate,Long,State,Bottom,,node3
14,18448.830000008456,branch_RBME2,causal-graph1,female,40,english,United States of America,Right,R565694367980gxrw,1.0,,AND_Gate,Medium,Event,Bottom,Medium,node12
14,10316.275000019232,branch_RBSE1,causal-graph1,female,40,english,United States of America,Right,R565694367980gxrw,1.0,,AND_Gate,Short,Event,Bottom,Short,node14
14,12100.544999993872,branch_RTSE2,causal-graph1,female,40,english,United States of America,Right,R565694367980gxrw,1.0,,AND_Gate,Short,Event,Top,Medium,node7
14,9460.814999998549,branch_RBSS,causal-graph1,female,40,english,United States of America,Right,R565694367980gxrw,1.0,,AND_Gate,Short,State,Bottom,,node7
14,12105.139999999663,branch_RTME1,causal-graph1,female,40,english,United States of America,Right,R565694367980gxrw,1.0,,AND_Gate,Medium,Event,Top,Short,node5
14,9696.134999976492,branch_RBMS,causal-graph1,female,40,english,United States of America,Right,R565694367980gxrw,1.0,,AND_Gate,Medium,State,Bottom,,node5
14,15048.97499998333,branch_RTLE2,causal-graph1,female,40,english,United States of America,Right,R565694367980gxrw,1.0,,AND_Gate,Long,Event,Top,Medium,node3
14,13536.275000020396,branch_RTLE1,causal-graph1,female,40,english,United States of America,Right,R565694367980gxrw,1.0,,AND_Gate,Long,Event,Top,Short,node3
14,15084.584999975048,branch_RBME3,causal-graph1,female,40,english,United States of America,Right,R565694367980gxrw,1.0,,AND_Gate,Medium,Event,Bottom,Long,node12
14,8270.430000004126,chain_RS,causal-graph1,female,40,english,United States of America,Right,R565694367980gxrw,1.0,,Chain,Short,,,,node7
14,13783.749999973224,branch_RTSE3,causal-graph1,female,40,english,United States of America,Right,R565694367980gxrw,1.0,,AND_Gate,Short,Event,Top,Long,node7
14,12949.865000002319,chain_RM,causal-graph1,female,40,english,United States of America,Right,R565694367980gxrw,1.0,,Chain,Medium,,,,node5
14,18829.36500001233,branch_RBLE3,causal-graph1,female,40,english,United States of America,Right,R565694367980gxrw,1.0,,AND_Gate,Long,Event,Bottom,Long,node10
14,,instruction,image-button-response,female,40,english,United States of America,Right,R565694367980gxrw,,,,,,,,
14,36515.19999999437,comment,survey-text,female,40,english,United States of America,Right,R565694367980gxrw,,"{""Q0"":""in did n't face any difficulty during the survey""}",,,,,,
15,,instruction,image-button-response,male,34,ENGLISH,United States of America,Right,R563546347110gxrw,,,,,,,,
15,,instruction,causal-graph1,male,34,ENGLISH,United States of America,Right,R563546347110gxrw,,,,,,,,
15,,instruction,causal-graph1,male,34,ENGLISH,United States of America,Right,R563546347110gxrw,1.0,,,,,,,
15,,instruction,causal-graph1,male,34,ENGLISH,United States of America,Right,R563546347110gxrw,,,,,,,,
15,,instruction,causal-graph1,male,34,ENGLISH,United States of America,Right,R563546347110gxrw,1.0,,,,,,,
15,,instruction,image-button-response,male,34,ENGLISH,United States of America,Right,R563546347110gxrw,,,,,,,,
15,,instruction,survey-multi-choice,male,34,ENGLISH,United States of America,Right,R563546347110gxrw,,"{""Q0"":"" To decide what caused the activation of the GCM"",""Q1"":"" A GCM is a square marked with a star"",""Q2"":"" A GCM becomes active if all of its inputs are active"",""Q3"":"" You should click on just one detector in each network""}",,,,,,
15,,instruction,image-button-response,male,34,ENGLISH,United States of America,Right,R563546347110gxrw,,,,,,,,
15,17385.999999998603,chain_RM,causal-graph1,male,34,ENGLISH,United States of America,Right,R563546347110gxrw,1.0,,Chain,Medium,,,,node6
15,13762.999999977184,branch_RBSE2,causal-graph1,male,34,ENGLISH,United States of America,Right,R563546347110gxrw,1.0,,AND_Gate,Short,Event,Bottom,Medium,node14
15,14176.000000035858,branch_RTLE2,causal-graph1,male,34,ENGLISH,United States of America,Right,R563546347110gxrw,1.0,,AND_Gate,Long,Event,Top,Medium,node7
15,10831.999999994878,branch_RTSE1,causal-graph1,male,34,ENGLISH,United States of America,Right,R563546347110gxrw,1.0,,AND_Gate,Short,Event,Top,Short,node7
15,13485.99999997532,branch_RTME2,causal-graph1,male,34,ENGLISH,United States of America,Right,R563546347110gxrw,1.0,,AND_Gate,Medium,Event,Top,Medium,node14
15,10411.999999952968,branch_RBME1,causal-graph1,male,34,ENGLISH,United States of America,Right,R563546347110gxrw,1.0,,AND_Gate,Medium,Event,Bottom,Short,node14
15,17191.999999980908,branch_RBLE3,causal-graph1,male,34,ENGLISH,United States of America,Right,R563546347110gxrw,1.0,,AND_Gate,Long,Event,Bottom,Long,node15
15,44962.99999998882,branch_RTME3,causal-graph1,male,34,ENGLISH,United States of America,Right,R563546347110gxrw,1.0,,AND_Gate,Medium,Event,Top,Long,node15
15,14373.000000021419,branch_RTSE3,causal-graph1,male,34,ENGLISH,United States of America,Right,R563546347110gxrw,1.0,,AND_Gate,Short,Event,Top,Long,node15
15,9640.00000001397,branch_RTMS,causal-graph1,male,34,ENGLISH,United States of America,Right,R563546347110gxrw,1.0,,AND_Gate,Medium,State,Top,,node15
15,7844.999999972059,branch_RTSS,causal-graph1,male,34,ENGLISH,United States of America,Right,R563546347110gxrw,1.0,,AND_Gate,Short,State,Top,,node15
15,10827.999999979509,chain_RL,causal-graph1,male,34,ENGLISH,United States of America,Right,R563546347110gxrw,1.0,,Chain,Long,,,,node8
15,10271.000000007916,chain_RS,causal-graph1,male,34,ENGLISH,United States of America,Right,R563546347110gxrw,1.0,,Chain,Short,,,,node8
15,12074.999999953436,branch_RBLE1,causal-graph1,male,34,ENGLISH,United States of America,Right,R563546347110gxrw,1.0,,AND_Gate,Long,Event,Bottom,Short,node15
15,10462.999999988824,branch_RTLS,causal-graph1,male,34,ENGLISH,United States of America,Right,R563546347110gxrw,1.0,,AND_Gate,Long,State,Top,,node15
15,,instruction,image-button-response,male,34,ENGLISH,United States of America,Right,R563546347110gxrw,,,,,,,,
15,10367.999999958556,comment,survey-text,male,34,ENGLISH,United States of America,Right,R563546347110gxrw,,"{""Q0"":""very nice experiment""}",,,,,,
16,,instruction,image-button-response,male,53,English,United States of America,Left,R569124397980gxrw,,,,,,,,
16,,instruction,causal-graph1,male,53,English,United States of America,Left,R569124397980gxrw,,,,,,,,
16,,instruction,causal-graph1,male,53,English,United States of America,Left,R569124397980gxrw,1.0,,,,,,,
16,,instruction,causal-graph1,male,53,English,United States of America,Left,R569124397980gxrw,,,,,,,,
16,,instruction,causal-graph1,male,53,English,United States of America,Left,R569124397980gxrw,1.0,,,,,,,
16,,instruction,image-button-response,male,53,English,United States of America,Left,R569124397980gxrw,,,,,,,,
16,,instruction,survey-multi-choice,male,53,English,United States of America,Left,R569124397980gxrw,,"{""Q0"":"" To decide what causes the activation of each detector"",""Q1"":"" A GCM is a square marked with a star"",""Q2"":"" A GCM becomes active if at least one of its inputs is active"",""Q3"":"" You should assign a number to every detector in every network""}",,,,,,
16,,instruction,image-button-response,male,53,English,United States of America,Left,R569124397980gxrw,,,,,,,,
16,,instruction,image-button-response,male,53,English,United States of America,Left,R569124397980gxrw,,,,,,,,
16,,instruction,causal-graph1,male,53,English,United States of America,Left,R569124397980gxrw,,,,,,,,
16,,instruction,causal-graph1,male,53,English,United States of America,Left,R569124397980gxrw,1.0,,,,,,,
16,,instruction,causal-graph1,male,53,English,United States of America,Left,R569124397980gxrw,,,,,,,,
16,,instruction,causal-graph1,male,53,English,United States of America,Left,R569124397980gxrw,1.0,,,,,,,
16,,instruction,image-button-response,male,53,English,United States of America,Left,R569124397980gxrw,,,,,,,,
16,,instruction,survey-multi-choice,male,53,English,United States of America,Left,R569124397980gxrw,,"{""Q0"":"" To find out if the Gauge of Critical Moment (GCM) is activated or not"",""Q1"":""A GCM is a square without any mark"",""Q2"":"" A GCM becomes active if all of its inputs are active"",""Q3"":"" You should click on just one detector in each network""}",,,,,,
16,,instruction,image-button-response,male,53,English,United States of America,Left,R569124397980gxrw,,,,,,,,
16,,instruction,image-button-response,male,53,English,United States of America,Left,R569124397980gxrw,,,,,,,,
16,,instruction,causal-graph1,male,53,English,United States of America,Left,R569124397980gxrw,,,,,,,,
16,,instruction,causal-graph1,male,53,English,United States of America,Left,R569124397980gxrw,2.0,,,,,,,
16,,instruction,causal-graph1,male,53,English,United States of America,Left,R569124397980gxrw,,,,,,,,
16,,instruction,causal-graph1,male,53,English,United States of America,Left,R569124397980gxrw,1.0,,,,,,,
16,,instruction,image-button-response,male,53,English,United States of America,Left,R569124397980gxrw,,,,,,,,
16,,instruction,survey-multi-choice,male,53,English,United States of America,Left,R569124397980gxrw,,"{""Q0"":"" To decide what caused the activation of the GCM"",""Q1"":""A GCM is a square without any mark"",""Q2"":"" A GCM becomes active if all of its inputs are active"",""Q3"":"" You should assign a number to every detector in every network""}",,,,,,
16,,instruction,image-button-response,male,53,English,United States of America,Left,R569124397980gxrw,,,,,,,,
16,,instruction,image-button-response,male,53,English,United States of America,Left,R569124397980gxrw,,,,,,,,
16,,instruction,causal-graph1,male,53,English,United States of America,Left,R569124397980gxrw,,,,,,,,
16,,instruction,causal-graph1,male,53,English,United States of America,Left,R569124397980gxrw,1.0,,,,,,,
16,,instruction,causal-graph1,male,53,English,United States of America,Left,R569124397980gxrw,,,,,,,,
16,,instruction,causal-graph1,male,53,English,United States of America,Left,R569124397980gxrw,1.0,,,,,,,
16,,instruction,image-button-response,male,53,English,United States of America,Left,R569124397980gxrw,,,,,,,,
16,,instruction,survey-multi-choice,male,53,English,United States of America,Left,R569124397980gxrw,,"{""Q0"":"" To decide what caused the activation of the GCM"",""Q1"":"" A GCM is a square marked with a star"",""Q2"":"" A GCM becomes active if all of its inputs are active"",""Q3"":"" You should assign a number to every detector in every network""}",,,,,,
16,,instruction,image-button-response,male,53,English,United States of America,Left,R569124397980gxrw,,,,,,,,
16,,instruction,image-button-response,male,53,English,United States of America,Left,R569124397980gxrw,,,,,,,,
16,,instruction,causal-graph1,male,53,English,United States of America,Left,R569124397980gxrw,,,,,,,,
16,,instruction,causal-graph1,male,53,English,United States of America,Left,R569124397980gxrw,1.0,,,,,,,
16,,instruction,causal-graph1,male,53,English,United States of America,Left,R569124397980gxrw,,,,,,,,
16,,instruction,causal-graph1,male,53,English,United States of America,Left,R569124397980gxrw,1.0,,,,,,,
16,,instruction,image-button-response,male,53,English,United States of America,Left,R569124397980gxrw,,,,,,,,
16,,instruction,survey-multi-choice,male,53,English,United States of America,Left,R569124397980gxrw,,"{""Q0"":"" To find out if the Gauge of Critical Moment (GCM) is activated or not"",""Q1"":""A GCM is a square without any mark"",""Q2"":"" A GCM becomes active if all of its inputs are active"",""Q3"":"" You should click on just one detector in each network""}",,,,,,
16,,instruction,image-button-response,male,53,English,United States of America,Left,R569124397980gxrw,,,,,,,,
16,,instruction,image-button-response,male,53,English,United States of America,Left,R569124397980gxrw,,,,,,,,
16,,instruction,causal-graph1,male,53,English,United States of America,Left,R569124397980gxrw,,,,,,,,
16,,instruction,causal-graph1,male,53,English,United States of America,Left,R569124397980gxrw,1.0,,,,,,,
16,,instruction,causal-graph1,male,53,English,United States of America,Left,R569124397980gxrw,,,,,,,,
16,,instruction,causal-graph1,male,53,English,United States of America,Left,R569124397980gxrw,1.0,,,,,,,
16,,instruction,image-button-response,male,53,English,United States of America,Left,R569124397980gxrw,,,,,,,,
16,,instruction,survey-multi-choice,male,53,English,United States of America,Left,R569124397980gxrw,,"{""Q0"":"" To find out if the Gauge of Critical Moment (GCM) is activated or not"",""Q1"":""A GCM is a square without any mark"",""Q2"":"" A GCM becomes active if all of its inputs are active"",""Q3"":"" You should assign a number to every detector in every network""}",,,,,,
16,,instruction,image-button-response,male,53,English,United States of America,Left,R569124397980gxrw,,,,,,,,
16,,instruction,image-button-response,male,53,English,United States of America,Left,R569124397980gxrw,,,,,,,,
16,,instruction,causal-graph1,male,53,English,United States of America,Left,R569124397980gxrw,,,,,,,,
16,,instruction,causal-graph1,male,53,English,United States of America,Left,R569124397980gxrw,1.0,,,,,,,
16,,instruction,causal-graph1,male,53,English,United States of America,Left,R569124397980gxrw,,,,,,,,
16,,instruction,causal-graph1,male,53,English,United States of America,Left,R569124397980gxrw,1.0,,,,,,,
16,,instruction,image-button-response,male,53,English,United States of America,Left,R569124397980gxrw,,,,,,,,
16,,instruction,survey-multi-choice,male,53,English,United States of America,Left,R569124397980gxrw,,"{""Q0"":"" To decide what caused the activation of the GCM"",""Q1"":"" A GCM is a square marked with a star"",""Q2"":"" A GCM becomes active if all of its inputs are active"",""Q3"":"" You should click on just one detector in each network""}",,,,,,
16,,instruction,image-button-response,male,53,English,United States of America,Left,R569124397980gxrw,,,,,,,,
16,37901.63999982178,branch_LBME1,causal-graph1,male,53,English,United States of America,Left,R569124397980gxrw,2.0,,AND_Gate,Medium,Event,Bottom,Short,node3
16,25168.774999910966,branch_LTLE1,causal-graph1,male,53,English,United States of America,Left,R569124397980gxrw,1.0,,AND_Gate,Long,Event,Top,Short,node1
16,52219.11000018008,branch_LTSE2,causal-graph1,male,53,English,United States of America,Left,R569124397980gxrw,1.0,,AND_Gate,Short,Event,Top,Medium,node4
16,13909.10999989137,branch_LTME2,causal-graph1,male,53,English,United States of America,Left,R569124397980gxrw,1.0,,AND_Gate,Medium,Event,Top,Medium,node10
16,14364.369999850169,chain_LS,causal-graph1,male,53,English,United States of America,Left,R569124397980gxrw,1.0,,Chain,Short,,,,node4
16,14280.21500003524,branch_LBSE3,causal-graph1,male,53,English,United States of America,Left,R569124397980gxrw,1.0,,AND_Gate,Short,Event,Bottom,Long,node10
16,9712.07999996841,branch_LTMS,causal-graph1,male,53,English,United States of America,Left,R569124397980gxrw,1.0,,AND_Gate,Medium,State,Top,,node10
16,23700.674999970943,branch_LBLE2,causal-graph1,male,53,English,United States of America,Left,R569124397980gxrw,1.0,,AND_Gate,Long,Event,Bottom,Medium,node8
16,55149.61500000209,chain_LM,causal-graph1,male,53,English,United States of America,Left,R569124397980gxrw,1.0,,Chain,Medium,,,,node3
16,17597.065000096336,branch_LBME3,causal-graph1,male,53,English,United States of America,Left,R569124397980gxrw,1.0,,AND_Gate,Medium,Event,Bottom,Long,node3
16,17487.594999838617,branch_LBLE3,causal-graph1,male,53,English,United States of America,Left,R569124397980gxrw,1.0,,AND_Gate,Long,Event,Bottom,Long,node9
16,15849.76499993354,branch_LTSE1,causal-graph1,male,53,English,United States of America,Left,R569124397980gxrw,1.0,,AND_Gate,Short,Event,Top,Short,node11
16,10110.415000002831,branch_LBSS,causal-graph1,male,53,English,United States of America,Left,R569124397980gxrw,1.0,,AND_Gate,Short,State,Bottom,,node4
16,9571.290000109002,chain_LL,causal-graph1,male,53,English,United States of America,Left,R569124397980gxrw,1.0,,Chain,Long,,,,node1
16,21142.904999898747,branch_LBLS,causal-graph1,male,53,English,United States of America,Left,R569124397980gxrw,1.0,,AND_Gate,Long,State,Bottom,,node9
16,,instruction,image-button-response,male,53,English,United States of America,Left,R569124397980gxrw,,,,,,,,
16,31770.715000107884,comment,survey-text,male,53,English,United States of America,Left,R569124397980gxrw,,"{""Q0"":""good but very thinking survey""}",,,,,,
17,,instruction,image-button-response,male,34,English,United States of America,Right,R562382867540gxrw,,,,,,,,
17,,instruction,causal-graph1,male,34,English,United States of America,Right,R562382867540gxrw,,,,,,,,
17,,instruction,causal-graph1,male,34,English,United States of America,Right,R562382867540gxrw,1.0,,,,,,,
17,,instruction,causal-graph1,male,34,English,United States of America,Right,R562382867540gxrw,,,,,,,,
17,,instruction,causal-graph1,male,34,English,United States of America,Right,R562382867540gxrw,1.0,,,,,,,
17,,instruction,image-button-response,male,34,English,United States of America,Right,R562382867540gxrw,,,,,,,,
17,,instruction,survey-multi-choice,male,34,English,United States of America,Right,R562382867540gxrw,,"{""Q0"":"" To decide what caused the activation of the GCM"",""Q1"":"" A GCM is a square marked with a star"",""Q2"":"" A GCM becomes active if all of its inputs are active"",""Q3"":"" You should click on just one detector in each network""}",,,,,,
17,,instruction,image-button-response,male,34,English,United States of America,Right,R562382867540gxrw,,,,,,,,
17,14465.884999954143,chain_RM,causal-graph1,male,34,English,United States of America,Right,R562382867540gxrw,1.0,,Chain,Medium,,,,node5
17,10079.700000002049,branch_RTMS,causal-graph1,male,34,English,United States of America,Right,R562382867540gxrw,1.0,,AND_Gate,Medium,State,Top,,node12
17,16302.794999908654,branch_RBSE3,causal-graph1,male,34,English,United States of America,Right,R562382867540gxrw,1.0,,AND_Gate,Short,Event,Bottom,Long,node7
17,10070.944999926724,branch_RBSE1,causal-graph1,male,34,English,United States of America,Right,R562382867540gxrw,1.0,,AND_Gate,Short,Event,Bottom,Short,node7
17,10374.889999977311,branch_RBSE2,causal-graph1,male,34,English,United States of America,Right,R562382867540gxrw,1.0,,AND_Gate,Short,Event,Bottom,Medium,node14
17,15466.454999987036,branch_RBME3,causal-graph1,male,34,English,United States of America,Right,R562382867540gxrw,1.0,,AND_Gate,Medium,Event,Bottom,Long,node5
17,12250.389999942854,branch_RTME1,causal-graph1,male,34,English,United States of America,Right,R562382867540gxrw,1.0,,AND_Gate,Medium,Event,Top,Short,node5
17,14850.730000063777,branch_RBLE2,causal-graph1,male,34,English,United States of America,Right,R562382867540gxrw,1.0,,AND_Gate,Long,Event,Bottom,Medium,node3
17,8106.874999939464,chain_RS,causal-graph1,male,34,English,United States of America,Right,R562382867540gxrw,1.0,,Chain,Short,,,,node7
17,12962.69499999471,branch_RTLE1,causal-graph1,male,34,English,United States of America,Right,R562382867540gxrw,1.0,,AND_Gate,Long,Event,Top,Short,node3
17,7988.800000050105,branch_RTSS,causal-graph1,male,34,English,United States of America,Right,R562382867540gxrw,1.0,,AND_Gate,Short,State,Top,,node14
17,12432.48499999754,branch_RTME2,causal-graph1,male,34,English,United States of America,Right,R562382867540gxrw,1.0,,AND_Gate,Medium,Event,Top,Medium,node5
17,16966.254999977536,branch_RBLE3,causal-graph1,male,34,English,United States of America,Right,R562382867540gxrw,1.0,,AND_Gate,Long,Event,Bottom,Long,node3
17,9536.169999977574,chain_RL,causal-graph1,male,34,English,United States of America,Right,R562382867540gxrw,1.0,,Chain,Long,,,,node3
17,10697.595000034198,branch_RBLS,causal-graph1,male,34,English,United States of America,Right,R562382867540gxrw,1.0,,AND_Gate,Long,State,Bottom,,node3
17,,instruction,image-button-response,male,34,English,United States of America,Right,R562382867540gxrw,,,,,,,,
17,18875.75000000652,comment,survey-text,male,34,English,United States of America,Right,R562382867540gxrw,,"{""Q0"":""Good""}",,,,,,
18,,instruction,image-button-response,male,30,english,United States of America,Left,R564673157670gxrw,,,,,,,,
18,,instruction,causal-graph1,male,30,english,United States of America,Left,R564673157670gxrw,,,,,,,,
18,,instruction,causal-graph1,male,30,english,United States of America,Left,R564673157670gxrw,2.0,,,,,,,
18,,instruction,causal-graph1,male,30,english,United States of America,Left,R564673157670gxrw,,,,,,,,
18,,instruction,causal-graph1,male,30,english,United States of America,Left,R564673157670gxrw,1.0,,,,,,,
18,,instruction,image-button-response,male,30,english,United States of America,Left,R564673157670gxrw,,,,,,,,
18,,instruction,survey-multi-choice,male,30,english,United States of America,Left,R564673157670gxrw,,"{""Q0"":"" To decide what caused the activation of the GCM"",""Q1"":"" A GCM is a square marked with a star"",""Q2"":"" A GCM can activate itself at any stage"",""Q3"":"" Some detectors are not clickable""}",,,,,,
18,,instruction,image-button-response,male,30,english,United States of America,Left,R564673157670gxrw,,,,,,,,
18,,instruction,image-button-response,male,30,english,United States of America,Left,R564673157670gxrw,,,,,,,,
18,,instruction,causal-graph1,male,30,english,United States of America,Left,R564673157670gxrw,,,,,,,,
18,,instruction,causal-graph1,male,30,english,United States of America,Left,R564673157670gxrw,1.0,,,,,,,
18,,instruction,causal-graph1,male,30,english,United States of America,Left,R564673157670gxrw,,,,,,,,
18,,instruction,causal-graph1,male,30,english,United States of America,Left,R564673157670gxrw,1.0,,,,,,,
18,,instruction,image-button-response,male,30,english,United States of America,Left,R564673157670gxrw,,,,,,,,
18,,instruction,survey-multi-choice,male,30,english,United States of America,Left,R564673157670gxrw,,"{""Q0"":"" To decide what caused the activation of the GCM"",""Q1"":"" A GCM is a square marked with a star"",""Q2"":"" A GCM can activate itself at any stage"",""Q3"":"" You should assign a number to every detector in every network""}",,,,,,
18,,instruction,image-button-response,male,30,english,United States of America,Left,R564673157670gxrw,,,,,,,,
