subject_id,stimulus,trial_type,time_elapsed,gender,age,language,country,sampling,turkcode,nb_of_run,rt,responses,stim_type,rolled_OR_unrolled,A_branch_loc,A_detectors,state_OR_event,state_branch,root_1st,imdt_2nd,node_selected
1,instruction,causal-graph1,7930,male,25,English,American Samoa,Right,R563014957130gxrw,,,,,,,,,,,,
1,instruction,causal-graph1,14973,male,25,English,American Samoa,Right,R563014957130gxrw,,,,,,,,,,,,
1,instruction,causal-graph1,26192,male,25,English,American Samoa,Right,R563014957130gxrw,1.0,,,,,,,,,,,
1,instruction,causal-graph1,29264,male,25,English,American Samoa,Right,R563014957130gxrw,,,,,,,,,,,,
1,instruction,causal-graph1,34599,male,25,English,American Samoa,Right,R563014957130gxrw,,,,,,,,,,,,
1,instruction,causal-graph1,54490,male,25,English,American Samoa,Right,R563014957130gxrw,2.0,,,,,,,,,,,
1,instruction,causal-graph1,58433,male,25,English,American Samoa,Right,R563014957130gxrw,,,,,,,,,,,,
1,instruction,causal-graph1,79828,male,25,English,American Samoa,Right,R563014957130gxrw,1.0,,,,,,,,,,,
1,instruction,causal-graph3,90476,male,25,English,American Samoa,Right,R563014957130gxrw,1.0,,,,,,,,,,,
1,instruction,causal-graph1,93836,male,25,English,American Samoa,Right,R563014957130gxrw,,,,,,,,,,,,
1,instruction,causal-graph1,106851,male,25,English,American Samoa,Right,R563014957130gxrw,,,,,,,,,,,,
1,instruction,causal-graph1,111641,male,25,English,American Samoa,Right,R563014957130gxrw,,,,,,,,,,,,
1,instruction,survey-multi-choice,144589,male,25,English,American Samoa,Right,R563014957130gxrw,,,"{""Q0"":"" To find out if the Gauge of Critical Moment (G) is activated or not"",""Q1"":"" A detector becomes active if it receives input from an active detector"",""Q2"":"" G becomes active if it absorbs a radioactive particle"",""Q3"":"" Square detectors maintain their activation over time but round detectors do not""}",,,,,,,,,
1,instruction,causal-graph1,153933,male,25,English,American Samoa,Right,R563014957130gxrw,,,,,,,,,,,,
1,instruction,causal-graph1,160754,male,25,English,American Samoa,Right,R563014957130gxrw,,,,,,,,,,,,
1,instruction,causal-graph1,273975,male,25,English,American Samoa,Right,R563014957130gxrw,,,,,,,,,,,,
1,instruction,causal-graph1,282691,male,25,English,American Samoa,Right,R563014957130gxrw,1.0,,,,,,,,,,,
1,instruction,causal-graph1,285015,male,25,English,American Samoa,Right,R563014957130gxrw,,,,,,,,,,,,
1,instruction,causal-graph1,289408,male,25,English,American Samoa,Right,R563014957130gxrw,,,,,,,,,,,,
1,instruction,causal-graph1,298823,male,25,English,American Samoa,Right,R563014957130gxrw,1.0,,,,,,,,,,,
1,instruction,causal-graph1,301850,male,25,English,American Samoa,Right,R563014957130gxrw,,,,,,,,,,,,
1,instruction,causal-graph1,320004,male,25,English,American Samoa,Right,R563014957130gxrw,1.0,,,,,,,,,,,
1,instruction,causal-graph3,335550,male,25,English,American Samoa,Right,R563014957130gxrw,1.0,,,,,,,,,,,
1,instruction,causal-graph1,339234,male,25,English,American Samoa,Right,R563014957130gxrw,,,,,,,,,,,,
1,instruction,causal-graph1,340884,male,25,English,American Samoa,Right,R563014957130gxrw,,,,,,,,,,,,
1,instruction,causal-graph1,351716,male,25,English,American Samoa,Right,R563014957130gxrw,,,,,,,,,,,,
1,instruction,survey-multi-choice,414560,male,25,English,American Samoa,Right,R563014957130gxrw,,,"{""Q0"":"" To decide what caused the activation of G"",""Q1"":"" A detector becomes active if it absorbs a radioactive particle or receives input from an active detector"",""Q2"":"" G becomes active if all of its inputs are active"",""Q3"":"" Square detectors maintain their activation over time but round detectors do not""}",,,,,,,,,
1,instruction,causal-graph1,417402,male,25,English,American Samoa,Right,R563014957130gxrw,,,,,,,,,,,,
1,RBC_RB,causal-graph3,474938,male,25,English,American Samoa,Right,R563014957130gxrw,2.0,5849.000000001979,,AND_Gate,Rolled,Bottom,Circles,State,B,,A,nodeA20
1,UBBS_RB,causal-graph1,502187,male,25,English,American Samoa,Right,R563014957130gxrw,2.0,11440.000000002328,,AND_Gate,Unrolled,Bottom,Squares,Event,,B,B,nodeB19
1,UBAS_RB,causal-graph1,516773,male,25,English,American Samoa,Right,R563014957130gxrw,1.0,11379.000000000815,,AND_Gate,Unrolled,Bottom,Squares,Event,,B,A,nodeA41
1,chainC_RB,causal-graph1,537379,male,25,English,American Samoa,Right,R563014957130gxrw,1.0,13497.000000003027,,ChainC,,Bottom,,,,,,nodeA41
1,chainS_R,causal-graph1,551249,male,25,English,American Samoa,Right,R563014957130gxrw,1.0,9226.999999998952,,ChainS,,,,,,,,nodeB19
1,RBAC_RT,causal-graph3,566679,male,25,English,American Samoa,Right,R563014957130gxrw,1.0,3164.0000000043074,,AND_Gate,Rolled,Top,Circles,Event,,B,A,nodeA20
1,UBS_RB,causal-graph1,580146,male,25,English,American Samoa,Right,R563014957130gxrw,1.0,10314.999999987776,,AND_Gate,Unrolled,Bottom,Squares,State,B,,A,nodeA41
1,RAAC_RT,causal-graph3,594570,male,25,English,American Samoa,Right,R563014957130gxrw,1.0,2309.999999997672,,AND_Gate,Rolled,Top,Circles,Event,,A,A,nodeA20
1,UBC_RB,causal-graph1,607887,male,25,English,American Samoa,Right,R563014957130gxrw,1.0,10301.000000006752,,AND_Gate,Unrolled,Bottom,Circles,State,B,,A,nodeA41
1,UAS_RB,causal-graph1,622448,male,25,English,American Samoa,Right,R563014957130gxrw,1.0,9926.999999996042,,AND_Gate,Unrolled,Bottom,Squares,State,A,,B,nodeB19
1,UABS_RT,causal-graph1,637415,male,25,English,American Samoa,Right,R563014957130gxrw,1.0,11964.99999999651,,AND_Gate,Unrolled,Top,Squares,Event,,A,B,nodeB19
1,UBAC_RB,causal-graph1,664166,male,25,English,American Samoa,Right,R563014957130gxrw,2.0,11703.000000008617,,AND_Gate,Unrolled,Bottom,Circles,Event,,B,A,nodeA41
1,RAC_RT,causal-graph3,685288,male,25,English,American Samoa,Right,R563014957130gxrw,1.0,6956.000000005588,,AND_Gate,Rolled,Top,Circles,State,A,,A,nodeA20
1,UAAS_RB,causal-graph1,699297,male,25,English,American Samoa,Right,R563014957130gxrw,1.0,11559.999999997672,,AND_Gate,Unrolled,Bottom,Squares,Event,,A,A,nodeA41
1,UAAC_RB,causal-graph1,716634,male,25,English,American Samoa,Right,R563014957130gxrw,1.0,14010.000000009311,,AND_Gate,Unrolled,Bottom,Circles,Event,,A,A,nodeA41
1,instruction,causal-graph1,720351,male,25,English,American Samoa,Right,R563014957130gxrw,,,,,,,,,,,,
1,comment,survey-text,735997,male,25,English,American Samoa,Right,R563014957130gxrw,,15614.000000001397,"{""Q0"":""Great work""}",,,,,,,,,
2,instruction,causal-graph1,9214,male,42,English ,United States of America,Left,R566748237500gxrw,,,,,,,,,,,,
2,instruction,causal-graph1,15865,male,42,English ,United States of America,Left,R566748237500gxrw,,,,,,,,,,,,
2,instruction,causal-graph1,34465,male,42,English ,United States of America,Left,R566748237500gxrw,1.0,,,,,,,,,,,
2,instruction,causal-graph1,43502,male,42,English ,United States of America,Left,R566748237500gxrw,,,,,,,,,,,,
2,instruction,causal-graph1,53722,male,42,English ,United States of America,Left,R566748237500gxrw,,,,,,,,,,,,
2,instruction,causal-graph1,66071,male,42,English ,United States of America,Left,R566748237500gxrw,1.0,,,,,,,,,,,
2,instruction,causal-graph1,79860,male,42,English ,United States of America,Left,R566748237500gxrw,,,,,,,,,,,,
2,instruction,causal-graph1,100322,male,42,English ,United States of America,Left,R566748237500gxrw,1.0,,,,,,,,,,,
2,instruction,causal-graph3,123186,male,42,English ,United States of America,Left,R566748237500gxrw,1.0,,,,,,,,,,,
2,instruction,causal-graph1,129035,male,42,English ,United States of America,Left,R566748237500gxrw,,,,,,,,,,,,
2,instruction,causal-graph1,134259,male,42,English ,United States of America,Left,R566748237500gxrw,,,,,,,,,,,,
2,instruction,causal-graph1,147883,male,42,English ,United States of America,Left,R566748237500gxrw,,,,,,,,,,,,
2,instruction,survey-multi-choice,338379,male,42,English ,United States of America,Left,R566748237500gxrw,,,"{""Q0"":"" To decide what caused the activation of G"",""Q1"":"" A detector becomes active if it absorbs a radioactive particle"",""Q2"":"" G becomes active if all of its inputs are active"",""Q3"":"" Square detectors maintain their activation over time but round detectors do not""}",,,,,,,,,
2,instruction,causal-graph1,342880,male,42,English ,United States of America,Left,R566748237500gxrw,,,,,,,,,,,,
2,instruction,causal-graph1,347563,male,42,English ,United States of America,Left,R566748237500gxrw,,,,,,,,,,,,
2,instruction,causal-graph1,350321,male,42,English ,United States of America,Left,R566748237500gxrw,,,,,,,,,,,,
2,instruction,causal-graph1,355513,male,42,English ,United States of America,Left,R566748237500gxrw,1.0,,,,,,,,,,,
2,instruction,causal-graph1,356401,male,42,English ,United States of America,Left,R566748237500gxrw,,,,,,,,,,,,
2,instruction,causal-graph1,357693,male,42,English ,United States of America,Left,R566748237500gxrw,,,,,,,,,,,,
2,instruction,causal-graph1,363201,male,42,English ,United States of America,Left,R566748237500gxrw,1.0,,,,,,,,,,,
2,instruction,causal-graph1,363881,male,42,English ,United States of America,Left,R566748237500gxrw,,,,,,,,,,,,
2,instruction,causal-graph1,369608,male,42,English ,United States of America,Left,R566748237500gxrw,1.0,,,,,,,,,,,
2,instruction,causal-graph3,375588,male,42,English ,United States of America,Left,R566748237500gxrw,1.0,,,,,,,,,,,
2,instruction,causal-graph1,376454,male,42,English ,United States of America,Left,R566748237500gxrw,,,,,,,,,,,,
2,instruction,causal-graph1,381892,male,42,English ,United States of America,Left,R566748237500gxrw,,,,,,,,,,,,
2,instruction,causal-graph1,382754,male,42,English ,United States of America,Left,R566748237500gxrw,,,,,,,,,,,,
2,instruction,survey-multi-choice,521208,male,42,English ,United States of America,Left,R566748237500gxrw,,,"{""Q0"":"" To decide what caused the activation of G"",""Q1"":"" A detector becomes active if it absorbs a radioactive particle"",""Q2"":"" G becomes active if all of its inputs are active"",""Q3"":"" Square detectors maintain their activation over time but round detectors do not""}",,,,,,,,,
2,instruction,causal-graph1,522880,male,42,English ,United States of America,Left,R566748237500gxrw,,,,,,,,,,,,
2,instruction,causal-graph1,523836,male,42,English ,United States of America,Left,R566748237500gxrw,,,,,,,,,,,,
2,instruction,causal-graph1,524475,male,42,English ,United States of America,Left,R566748237500gxrw,,,,,,,,,,,,
2,instruction,causal-graph1,528664,male,42,English ,United States of America,Left,R566748237500gxrw,1.0,,,,,,,,,,,
2,instruction,causal-graph1,529301,male,42,English ,United States of America,Left,R566748237500gxrw,,,,,,,,,,,,
2,instruction,causal-graph1,529837,male,42,English ,United States of America,Left,R566748237500gxrw,,,,,,,,,,,,
2,instruction,causal-graph1,535068,male,42,English ,United States of America,Left,R566748237500gxrw,1.0,,,,,,,,,,,
2,instruction,causal-graph1,535682,male,42,English ,United States of America,Left,R566748237500gxrw,,,,,,,,,,,,
2,instruction,causal-graph1,540823,male,42,English ,United States of America,Left,R566748237500gxrw,1.0,,,,,,,,,,,
2,instruction,causal-graph3,546834,male,42,English ,United States of America,Left,R566748237500gxrw,1.0,,,,,,,,,,,
2,instruction,causal-graph1,547474,male,42,English ,United States of America,Left,R566748237500gxrw,,,,,,,,,,,,
2,instruction,causal-graph1,548105,male,42,English ,United States of America,Left,R566748237500gxrw,,,,,,,,,,,,
2,instruction,causal-graph1,548721,male,42,English ,United States of America,Left,R566748237500gxrw,,,,,,,,,,,,
2,instruction,survey-multi-choice,711837,male,42,English ,United States of America,Left,R566748237500gxrw,,,"{""Q0"":"" To decide what caused the activation of G"",""Q1"":"" A detector becomes active if it absorbs a radioactive particle"",""Q2"":"" G becomes active if all of its inputs are active"",""Q3"":"" Square detectors maintain their activation over time but round detectors do not""}",,,,,,,,,
2,instruction,causal-graph1,713913,male,42,English ,United States of America,Left,R566748237500gxrw,,,,,,,,,,,,
2,instruction,causal-graph1,715528,male,42,English ,United States of America,Left,R566748237500gxrw,,,,,,,,,,,,
2,instruction,causal-graph1,716580,male,42,English ,United States of America,Left,R566748237500gxrw,,,,,,,,,,,,
2,instruction,causal-graph1,721268,male,42,English ,United States of America,Left,R566748237500gxrw,1.0,,,,,,,,,,,
2,instruction,causal-graph1,721992,male,42,English ,United States of America,Left,R566748237500gxrw,,,,,,,,,,,,
2,instruction,causal-graph1,723249,male,42,English ,United States of America,Left,R566748237500gxrw,,,,,,,,,,,,
2,instruction,causal-graph1,728320,male,42,English ,United States of America,Left,R566748237500gxrw,1.0,,,,,,,,,,,
2,instruction,causal-graph1,729259,male,42,English ,United States of America,Left,R566748237500gxrw,,,,,,,,,,,,
2,instruction,causal-graph1,735134,male,42,English ,United States of America,Left,R566748237500gxrw,1.0,,,,,,,,,,,
2,instruction,causal-graph3,741033,male,42,English ,United States of America,Left,R566748237500gxrw,1.0,,,,,,,,,,,
2,instruction,causal-graph1,741801,male,42,English ,United States of America,Left,R566748237500gxrw,,,,,,,,,,,,
2,instruction,causal-graph1,742897,male,42,English ,United States of America,Left,R566748237500gxrw,,,,,,,,,,,,
2,instruction,causal-graph1,743797,male,42,English ,United States of America,Left,R566748237500gxrw,,,,,,,,,,,,
2,instruction,survey-multi-choice,874993,male,42,English ,United States of America,Left,R566748237500gxrw,,,"{""Q0"":"" To decide what caused the activation of G"",""Q1"":"" A detector becomes active if it absorbs a radioactive particle or receives input from an active detector"",""Q2"":"" G becomes active if all of its inputs are active"",""Q3"":"" Square detectors maintain their activation over time but round detectors do not""}",,,,,,,,,
2,instruction,causal-graph1,883605,male,42,English ,United States of America,Left,R566748237500gxrw,,,,,,,,,,,,
2,UBS_LB,causal-graph1,912891,male,42,English ,United States of America,Left,R566748237500gxrw,2.0,14607.0,,AND_Gate,Unrolled,Bottom,Squares,State,B,,A,nodeA20
2,UBBS_LB,causal-graph1,928028,male,42,English ,United States of America,Left,R566748237500gxrw,1.0,13346.0,,AND_Gate,Unrolled,Bottom,Squares,Event,,B,B,nodeB2
2,UAAS_LT,causal-graph1,961166,male,42,English ,United States of America,Left,R566748237500gxrw,2.0,17732.0,,AND_Gate,Unrolled,Top,Squares,Event,,A,A,nodeA7
2,UBC_LT,causal-graph1,976362,male,42,English ,United States of America,Left,R566748237500gxrw,1.0,14130.0,,AND_Gate,Unrolled,Top,Circles,State,B,,A,nodeB4
2,UAS_LB,causal-graph1,1048295,male,42,English ,United States of America,Left,R566748237500gxrw,1.0,70546.0,,AND_Gate,Unrolled,Bottom,Squares,State,A,,B,nodeB7
2,UBAC_LB,causal-graph1,1070830,male,42,English ,United States of America,Left,R566748237500gxrw,2.0,10113.0,,AND_Gate,Unrolled,Bottom,Circles,Event,,B,A,nodeB4
2,RBAC_LB,causal-graph3,1082770,male,42,English ,United States of America,Left,R566748237500gxrw,1.0,1144.0,,AND_Gate,Rolled,Bottom,Circles,Event,,B,A,nodeB2
2,UABS_LB,causal-graph1,1098826,male,42,English ,United States of America,Left,R566748237500gxrw,1.0,15157.0,,AND_Gate,Unrolled,Bottom,Squares,Event,,A,B,nodeA7
2,RBC_LT,causal-graph3,1125522,male,42,English ,United States of America,Left,R566748237500gxrw,2.0,1335.0,,AND_Gate,Rolled,Top,Circles,State,B,,A,nodeB7
2,UBAS_LT,causal-graph1,1146955,male,42,English ,United States of America,Left,R566748237500gxrw,2.0,9867.0,,AND_Gate,Unrolled,Top,Squares,Event,,B,A,nodeB4
2,chainS_L,causal-graph1,1156277,male,42,English ,United States of America,Left,R566748237500gxrw,1.0,8300.0,,ChainS,,,,,,,,nodeB9
2,chainC_LB,causal-graph1,1176757,male,42,English ,United States of America,Left,R566748237500gxrw,2.0,10089.0,,ChainC,,Bottom,,,,,,nodeA26
2,UAAC_LT,causal-graph1,1212705,male,42,English ,United States of America,Left,R566748237500gxrw,3.0,10784.0,,AND_Gate,Unrolled,Top,Circles,Event,,A,A,nodeA7
2,RAC_LB,causal-graph3,1276333,male,42,English ,United States of America,Left,R566748237500gxrw,4.0,11493.0,,AND_Gate,Rolled,Bottom,Circles,State,A,,A,nodeA4
2,RAAC_LB,causal-graph3,1289164,male,42,English ,United States of America,Left,R566748237500gxrw,1.0,2472.0,,AND_Gate,Rolled,Bottom,Circles,Event,,A,A,nodeA6
2,instruction,causal-graph1,1293606,male,42,English ,United States of America,Left,R566748237500gxrw,,,,,,,,,,,,
2,comment,survey-text,1470888,male,42,English ,United States of America,Left,R566748237500gxrw,,177283.0,"{""Q0"":""Thank you for the opportunity!\nThis was an interesting and an informative task to complete!\nI did have some technical issues. \nSometimes the graph with G detectors would not display. \nThree times in a row towards the end of this task. \nOther than that everything else was fine.\nThanx, again!""}",,,,,,,,,
3,instruction,causal-graph1,25164,male,48,English,United States of America,Right,R562290197760gxrw,,,,,,,,,,,,
3,instruction,causal-graph1,42649,male,48,English,United States of America,Right,R562290197760gxrw,,,,,,,,,,,,
3,instruction,causal-graph1,90566,male,48,English,United States of America,Right,R562290197760gxrw,1.0,,,,,,,,,,,
3,instruction,causal-graph1,97178,male,48,English,United States of America,Right,R562290197760gxrw,,,,,,,,,,,,
3,instruction,causal-graph1,108337,male,48,English,United States of America,Right,R562290197760gxrw,,,,,,,,,,,,
3,instruction,causal-graph1,122823,male,48,English,United States of America,Right,R562290197760gxrw,1.0,,,,,,,,,,,
3,instruction,causal-graph1,126838,male,48,English,United States of America,Right,R562290197760gxrw,,,,,,,,,,,,
3,instruction,causal-graph1,155260,male,48,English,United States of America,Right,R562290197760gxrw,1.0,,,,,,,,,,,
3,instruction,causal-graph3,189519,male,48,English,United States of America,Right,R562290197760gxrw,1.0,,,,,,,,,,,
3,instruction,causal-graph1,192044,male,48,English,United States of America,Right,R562290197760gxrw,,,,,,,,,,,,
3,instruction,causal-graph1,202829,male,48,English,United States of America,Right,R562290197760gxrw,,,,,,,,,,,,
3,instruction,causal-graph1,223361,male,48,English,United States of America,Right,R562290197760gxrw,,,,,,,,,,,,
3,instruction,survey-multi-choice,264622,male,48,English,United States of America,Right,R562290197760gxrw,,,"{""Q0"":"" To find out if the Gauge of Critical Moment (G) is activated or not"",""Q1"":"" A detector becomes active if it absorbs a radioactive particle"",""Q2"":"" G becomes active if it absorbs a radioactive particle"",""Q3"":"" Round detectors maintain their activation over time but square detectors do not""}",,,,,,,,,
3,instruction,causal-graph1,268139,male,48,English,United States of America,Right,R562290197760gxrw,,,,,,,,,,,,
3,instruction,causal-graph1,270474,male,48,English,United States of America,Right,R562290197760gxrw,,,,,,,,,,,,
3,instruction,causal-graph1,273402,male,48,English,United States of America,Right,R562290197760gxrw,,,,,,,,,,,,
3,instruction,causal-graph1,346874,male,48,English,United States of America,Right,R562290197760gxrw,1.0,,,,,,,,,,,
3,instruction,causal-graph1,353384,male,48,English,United States of America,Right,R562290197760gxrw,,,,,,,,,,,,
3,instruction,causal-graph1,359198,male,48,English,United States of America,Right,R562290197760gxrw,,,,,,,,,,,,
3,instruction,causal-graph1,368645,male,48,English,United States of America,Right,R562290197760gxrw,1.0,,,,,,,,,,,
3,instruction,causal-graph1,375220,male,48,English,United States of America,Right,R562290197760gxrw,,,,,,,,,,,,
3,instruction,causal-graph1,389780,male,48,English,United States of America,Right,R562290197760gxrw,1.0,,,,,,,,,,,
3,instruction,causal-graph3,465794,male,48,English,United States of America,Right,R562290197760gxrw,1.0,,,,,,,,,,,
3,instruction,causal-graph1,514099,male,48,English,United States of America,Right,R562290197760gxrw,,,,,,,,,,,,
3,instruction,causal-graph1,517936,male,48,English,United States of America,Right,R562290197760gxrw,,,,,,,,,,,,
3,instruction,causal-graph1,520920,male,48,English,United States of America,Right,R562290197760gxrw,,,,,,,,,,,,
3,instruction,survey-multi-choice,553917,male,48,English,United States of America,Right,R562290197760gxrw,,,"{""Q0"":"" To decide what caused the activation of G"",""Q1"":"" A detector becomes active if it absorbs a radioactive particle"",""Q2"":"" G becomes active if it absorbs a radioactive particle"",""Q3"":"" Square detectors maintain their activation over time but round detectors do not""}",,,,,,,,,
3,instruction,causal-graph1,556508,male,48,English,United States of America,Right,R562290197760gxrw,,,,,,,,,,,,
3,instruction,causal-graph1,558011,male,48,English,United States of America,Right,R562290197760gxrw,,,,,,,,,,,,
3,instruction,causal-graph1,559716,male,48,English,United States of America,Right,R562290197760gxrw,,,,,,,,,,,,
3,instruction,causal-graph1,571668,male,48,English,United States of America,Right,R562290197760gxrw,1.0,,,,,,,,,,,
3,instruction,causal-graph1,574836,male,48,English,United States of America,Right,R562290197760gxrw,,,,,,,,,,,,
3,instruction,causal-graph1,580914,male,48,English,United States of America,Right,R562290197760gxrw,,,,,,,,,,,,
3,instruction,causal-graph1,589440,male,48,English,United States of America,Right,R562290197760gxrw,1.0,,,,,,,,,,,
3,instruction,causal-graph1,616028,male,48,English,United States of America,Right,R562290197760gxrw,,,,,,,,,,,,
3,instruction,causal-graph1,629684,male,48,English,United States of America,Right,R562290197760gxrw,1.0,,,,,,,,,,,
3,instruction,causal-graph3,637419,male,48,English,United States of America,Right,R562290197760gxrw,1.0,,,,,,,,,,,
3,instruction,causal-graph1,639825,male,48,English,United States of America,Right,R562290197760gxrw,,,,,,,,,,,,
3,instruction,causal-graph1,643715,male,48,English,United States of America,Right,R562290197760gxrw,,,,,,,,,,,,
3,instruction,causal-graph1,645376,male,48,English,United States of America,Right,R562290197760gxrw,,,,,,,,,,,,
3,instruction,survey-multi-choice,680440,male,48,English,United States of America,Right,R562290197760gxrw,,,"{""Q0"":"" To decide what caused the activation of G"",""Q1"":"" A detector becomes active if it absorbs a radioactive particle or receives input from an active detector"",""Q2"":"" G becomes active if at least one of its inputs is active"",""Q3"":"" Square detectors maintain their activation over time but round detectors do not""}",,,,,,,,,
3,instruction,causal-graph1,682740,male,48,English,United States of America,Right,R562290197760gxrw,,,,,,,,,,,,
3,instruction,causal-graph1,686915,male,48,English,United States of America,Right,R562290197760gxrw,,,,,,,,,,,,
3,instruction,causal-graph1,690698,male,48,English,United States of America,Right,R562290197760gxrw,,,,,,,,,,,,
3,instruction,causal-graph1,707416,male,48,English,United States of America,Right,R562290197760gxrw,1.0,,,,,,,,,,,
3,instruction,causal-graph1,712823,male,48,English,United States of America,Right,R562290197760gxrw,,,,,,,,,,,,
3,instruction,causal-graph1,720405,male,48,English,United States of America,Right,R562290197760gxrw,,,,,,,,,,,,
3,instruction,causal-graph1,731061,male,48,English,United States of America,Right,R562290197760gxrw,1.0,,,,,,,,,,,
3,instruction,causal-graph1,736780,male,48,English,United States of America,Right,R562290197760gxrw,,,,,,,,,,,,
3,instruction,causal-graph1,751890,male,48,English,United States of America,Right,R562290197760gxrw,1.0,,,,,,,,,,,
3,instruction,causal-graph3,760723,male,48,English,United States of America,Right,R562290197760gxrw,1.0,,,,,,,,,,,
3,instruction,causal-graph1,763424,male,48,English,United States of America,Right,R562290197760gxrw,,,,,,,,,,,,
3,instruction,causal-graph1,770880,male,48,English,United States of America,Right,R562290197760gxrw,,,,,,,,,,,,
3,instruction,causal-graph1,773023,male,48,English,United States of America,Right,R562290197760gxrw,,,,,,,,,,,,
3,instruction,survey-multi-choice,811419,male,48,English,United States of America,Right,R562290197760gxrw,,,"{""Q0"":"" To decide what caused the activation of G"",""Q1"":"" A detector becomes active if it receives input from an active detector"",""Q2"":"" G becomes active if at least one of its inputs is active"",""Q3"":"" Square detectors maintain their activation over time but round detectors do not""}",,,,,,,,,
3,instruction,causal-graph1,813449,male,48,English,United States of America,Right,R562290197760gxrw,,,,,,,,,,,,
3,instruction,causal-graph1,815665,male,48,English,United States of America,Right,R562290197760gxrw,,,,,,,,,,,,
3,instruction,causal-graph1,821457,male,48,English,United States of America,Right,R562290197760gxrw,,,,,,,,,,,,
3,instruction,causal-graph1,841374,male,48,English,United States of America,Right,R562290197760gxrw,1.0,,,,,,,,,,,
3,instruction,causal-graph1,846237,male,48,English,United States of America,Right,R562290197760gxrw,,,,,,,,,,,,
3,instruction,causal-graph1,849895,male,48,English,United States of America,Right,R562290197760gxrw,,,,,,,,,,,,
3,instruction,causal-graph1,856571,male,48,English,United States of America,Right,R562290197760gxrw,1.0,,,,,,,,,,,
3,instruction,causal-graph1,860284,male,48,English,United States of America,Right,R562290197760gxrw,,,,,,,,,,,,
3,instruction,causal-graph1,874065,male,48,English,United States of America,Right,R562290197760gxrw,1.0,,,,,,,,,,,
3,instruction,causal-graph3,881290,male,48,English,United States of America,Right,R562290197760gxrw,1.0,,,,,,,,,,,
3,instruction,causal-graph1,883263,male,48,English,United States of America,Right,R562290197760gxrw,,,,,,,,,,,,
3,instruction,causal-graph1,896750,male,48,English,United States of America,Right,R562290197760gxrw,,,,,,,,,,,,
3,instruction,causal-graph1,898206,male,48,English,United States of America,Right,R562290197760gxrw,,,,,,,,,,,,
3,instruction,survey-multi-choice,920051,male,48,English,United States of America,Right,R562290197760gxrw,,,"{""Q0"":"" To decide what caused the activation of G"",""Q1"":"" A detector becomes active if it absorbs a radioactive particle"",""Q2"":"" G becomes active if all of its inputs are active"",""Q3"":"" Square detectors maintain their activation over time but round detectors do not""}",,,,,,,,,
3,instruction,causal-graph1,922692,male,48,English,United States of America,Right,R562290197760gxrw,,,,,,,,,,,,
3,instruction,causal-graph1,926242,male,48,English,United States of America,Right,R562290197760gxrw,,,,,,,,,,,,
3,instruction,causal-graph1,929697,male,48,English,United States of America,Right,R562290197760gxrw,,,,,,,,,,,,
3,instruction,causal-graph1,944401,male,48,English,United States of America,Right,R562290197760gxrw,1.0,,,,,,,,,,,
3,instruction,causal-graph1,952190,male,48,English,United States of America,Right,R562290197760gxrw,,,,,,,,,,,,
3,instruction,causal-graph1,955615,male,48,English,United States of America,Right,R562290197760gxrw,,,,,,,,,,,,
3,instruction,causal-graph1,962741,male,48,English,United States of America,Right,R562290197760gxrw,1.0,,,,,,,,,,,
3,instruction,causal-graph1,968908,male,48,English,United States of America,Right,R562290197760gxrw,,,,,,,,,,,,
3,instruction,causal-graph1,981555,male,48,English,United States of America,Right,R562290197760gxrw,1.0,,,,,,,,,,,
3,instruction,causal-graph3,991754,male,48,English,United States of America,Right,R562290197760gxrw,1.0,,,,,,,,,,,
3,instruction,causal-graph1,994177,male,48,English,United States of America,Right,R562290197760gxrw,,,,,,,,,,,,
3,instruction,causal-graph1,995945,male,48,English,United States of America,Right,R562290197760gxrw,,,,,,,,,,,,
3,instruction,causal-graph1,997944,male,48,English,United States of America,Right,R562290197760gxrw,,,,,,,,,,,,
3,instruction,survey-multi-choice,1018342,male,48,English,United States of America,Right,R562290197760gxrw,,,"{""Q0"":"" To decide what caused the activation of each detector"",""Q1"":"" A detector becomes active if it absorbs a radioactive particle"",""Q2"":"" G becomes active if all of its inputs are active"",""Q3"":"" Square detectors maintain their activation over time but round detectors do not""}",,,,,,,,,
3,instruction,causal-graph1,1034891,male,48,English,United States of America,Right,R562290197760gxrw,,,,,,,,,,,,
3,instruction,causal-graph1,1042571,male,48,English,United States of America,Right,R562290197760gxrw,,,,,,,,,,,,
3,instruction,causal-graph1,1046450,male,48,English,United States of America,Right,R562290197760gxrw,,,,,,,,,,,,
3,instruction,causal-graph1,1069983,male,48,English,United States of America,Right,R562290197760gxrw,1.0,,,,,,,,,,,
3,instruction,causal-graph1,1081837,male,48,English,United States of America,Right,R562290197760gxrw,,,,,,,,,,,,
3,instruction,causal-graph1,1094581,male,48,English,United States of America,Right,R562290197760gxrw,,,,,,,,,,,,
3,instruction,causal-graph1,1102731,male,48,English,United States of America,Right,R562290197760gxrw,1.0,,,,,,,,,,,
3,instruction,causal-graph1,1107738,male,48,English,United States of America,Right,R562290197760gxrw,,,,,,,,,,,,
3,instruction,causal-graph1,1149156,male,48,English,United States of America,Right,R562290197760gxrw,1.0,,,,,,,,,,,
3,instruction,causal-graph3,1164274,male,48,English,United States of America,Right,R562290197760gxrw,1.0,,,,,,,,,,,
3,instruction,causal-graph1,1170563,male,48,English,United States of America,Right,R562290197760gxrw,,,,,,,,,,,,
3,instruction,causal-graph1,1174401,male,48,English,United States of America,Right,R562290197760gxrw,,,,,,,,,,,,
3,instruction,causal-graph1,1176074,male,48,English,United States of America,Right,R562290197760gxrw,,,,,,,,,,,,
3,instruction,survey-multi-choice,1231730,male,48,English,United States of America,Right,R562290197760gxrw,,,"{""Q0"":"" To decide what caused the activation of G"",""Q1"":"" A detector becomes active if it absorbs a radioactive particle"",""Q2"":"" G becomes active if all of its inputs are active"",""Q3"":"" Square detectors maintain their activation over time but round detectors do not""}",,,,,,,,,
3,instruction,causal-graph1,1236729,male,48,English,United States of America,Right,R562290197760gxrw,,,,,,,,,,,,
3,instruction,causal-graph1,1242463,male,48,English,United States of America,Right,R562290197760gxrw,,,,,,,,,,,,
3,instruction,causal-graph1,1252742,male,48,English,United States of America,Right,R562290197760gxrw,,,,,,,,,,,,
3,instruction,causal-graph1,1272349,male,48,English,United States of America,Right,R562290197760gxrw,1.0,,,,,,,,,,,
3,instruction,causal-graph1,1283921,male,48,English,United States of America,Right,R562290197760gxrw,,,,,,,,,,,,
3,instruction,causal-graph1,1292352,male,48,English,United States of America,Right,R562290197760gxrw,,,,,,,,,,,,
3,instruction,causal-graph1,1301503,male,48,English,United States of America,Right,R562290197760gxrw,1.0,,,,,,,,,,,
3,instruction,causal-graph1,1308318,male,48,English,United States of America,Right,R562290197760gxrw,,,,,,,,,,,,
3,instruction,causal-graph1,1341538,male,48,English,United States of America,Right,R562290197760gxrw,1.0,,,,,,,,,,,
3,instruction,causal-graph3,1349578,male,48,English,United States of America,Right,R562290197760gxrw,1.0,,,,,,,,,,,
3,instruction,causal-graph1,1362679,male,48,English,United States of America,Right,R562290197760gxrw,,,,,,,,,,,,
3,instruction,causal-graph1,1366495,male,48,English,United States of America,Right,R562290197760gxrw,,,,,,,,,,,,
3,instruction,causal-graph1,1367808,male,48,English,United States of America,Right,R562290197760gxrw,,,,,,,,,,,,
3,instruction,survey-multi-choice,1395061,male,48,English,United States of America,Right,R562290197760gxrw,,,"{""Q0"":"" To decide what caused the activation of G"",""Q1"":"" A detector becomes active if it absorbs a radioactive particle or receives input from an active detector"",""Q2"":"" G becomes active if all of its inputs are active"",""Q3"":"" Square detectors maintain their activation over time but round detectors do not""}",,,,,,,,,
3,instruction,causal-graph1,1403531,male,48,English,United States of America,Right,R562290197760gxrw,,,,,,,,,,,,
3,RBC_RB,causal-graph3,1443911,male,48,English,United States of America,Right,R562290197760gxrw,2.0,14310.860000026878,,AND_Gate,Rolled,Bottom,Circles,State,B,,A,nodeB7
3,UBAC_RB,causal-graph1,1458020,male,48,English,United States of America,Right,R562290197760gxrw,1.0,10611.160000029486,,AND_Gate,Unrolled,Bottom,Circles,Event,,B,A,nodeB4
3,UAAS_RB,causal-graph1,1473777,male,48,English,United States of America,Right,R562290197760gxrw,1.0,12832.374999998137,,AND_Gate,Unrolled,Bottom,Squares,Event,,A,A,nodeA7
3,UBAS_RT,causal-graph1,1487169,male,48,English,United States of America,Right,R562290197760gxrw,1.0,10878.834999981336,,AND_Gate,Unrolled,Top,Squares,Event,,B,A,nodeB4
3,UBC_RT,causal-graph1,1509372,male,48,English,United States of America,Right,R562290197760gxrw,2.0,10597.254999971485,,AND_Gate,Unrolled,Top,Circles,State,B,,A,nodeA20
3,chainS_R,causal-graph1,1522003,male,48,English,United States of America,Right,R562290197760gxrw,1.0,9929.384999966716,,ChainS,,,,,,,,nodeB9
3,UABS_RT,causal-graph1,1538865,male,48,English,United States of America,Right,R562290197760gxrw,1.0,14352.415000030305,,AND_Gate,Unrolled,Top,Squares,Event,,A,B,nodeA7
3,RAAC_RT,causal-graph3,1564823,male,48,English,United States of America,Right,R562290197760gxrw,2.0,2795.489999989513,,AND_Gate,Rolled,Top,Circles,Event,,A,A,nodeA5
3,chainC_RB,causal-graph1,1575859,male,48,English,United States of America,Right,R562290197760gxrw,1.0,8867.380000010598,,ChainC,,Bottom,,,,,,nodeA26
3,UAAC_RB,causal-graph1,1588425,male,48,English,United States of America,Right,R562290197760gxrw,1.0,10886.419999995269,,AND_Gate,Unrolled,Bottom,Circles,Event,,A,A,nodeA7
3,UBS_RT,causal-graph1,1601471,male,48,English,United States of America,Right,R562290197760gxrw,1.0,11046.465000021271,,AND_Gate,Unrolled,Top,Squares,State,B,,A,nodeA20
3,UAS_RT,causal-graph1,1614614,male,48,English,United States of America,Right,R562290197760gxrw,1.0,11017.229999997651,,AND_Gate,Unrolled,Top,Squares,State,A,,B,nodeB7
3,RBAC_RT,causal-graph3,1627493,male,48,English,United States of America,Right,R562290197760gxrw,1.0,2161.940000019968,,AND_Gate,Rolled,Top,Circles,Event,,B,A,nodeB2
3,RAC_RT,causal-graph3,1645083,male,48,English,United States of America,Right,R562290197760gxrw,1.0,1484.695000050124,,AND_Gate,Rolled,Top,Circles,State,A,,A,nodeB7
3,UBBS_RB,causal-graph1,1657385,male,48,English,United States of America,Right,R562290197760gxrw,1.0,10443.255000049248,,AND_Gate,Unrolled,Bottom,Squares,Event,,B,B,nodeB2
3,instruction,causal-graph1,1659633,male,48,English,United States of America,Right,R562290197760gxrw,,,,,,,,,,,,
3,comment,survey-text,1669823,male,48,English,United States of America,Right,R562290197760gxrw,,10171.49999999674,"{""Q0"":""Thank you for the fun task!""}",,,,,,,,,
4,instruction,causal-graph1,21543,male,47,english,United States of America,Right,R564114917230gxrw,,,,,,,,,,,,
4,instruction,causal-graph1,33870,male,47,english,United States of America,Right,R564114917230gxrw,,,,,,,,,,,,
4,instruction,causal-graph1,72993,male,47,english,United States of America,Right,R564114917230gxrw,2.0,,,,,,,,,,,
4,instruction,causal-graph1,121771,male,47,english,United States of America,Right,R564114917230gxrw,,,,,,,,,,,,
4,instruction,causal-graph1,153224,male,47,english,United States of America,Right,R564114917230gxrw,,,,,,,,,,,,
4,instruction,causal-graph1,169852,male,47,english,United States of America,Right,R564114917230gxrw,2.0,,,,,,,,,,,
4,instruction,causal-graph1,185445,male,47,english,United States of America,Right,R564114917230gxrw,,,,,,,,,,,,
4,instruction,causal-graph1,221804,male,47,english,United States of America,Right,R564114917230gxrw,1.0,,,,,,,,,,,
4,instruction,causal-graph3,260500,male,47,english,United States of America,Right,R564114917230gxrw,1.0,,,,,,,,,,,
4,instruction,causal-graph1,266183,male,47,english,United States of America,Right,R564114917230gxrw,,,,,,,,,,,,
4,instruction,causal-graph1,272670,male,47,english,United States of America,Right,R564114917230gxrw,,,,,,,,,,,,
4,instruction,causal-graph1,282661,male,47,english,United States of America,Right,R564114917230gxrw,,,,,,,,,,,,
4,instruction,survey-multi-choice,332205,male,47,english,United States of America,Right,R564114917230gxrw,,,"{""Q0"":"" To decide what caused the activation of G"",""Q1"":"" A detector becomes active if it absorbs a radioactive particle"",""Q2"":"" G becomes active if all of its inputs are active"",""Q3"":"" Square detectors maintain their activation over time but round detectors do not""}",,,,,,,,,
4,instruction,causal-graph1,336548,male,47,english,United States of America,Right,R564114917230gxrw,,,,,,,,,,,,
4,instruction,causal-graph1,338338,male,47,english,United States of America,Right,R564114917230gxrw,,,,,,,,,,,,
4,instruction,causal-graph1,341373,male,47,english,United States of America,Right,R564114917230gxrw,,,,,,,,,,,,
4,instruction,causal-graph1,363096,male,47,english,United States of America,Right,R564114917230gxrw,1.0,,,,,,,,,,,
4,instruction,causal-graph1,367326,male,47,english,United States of America,Right,R564114917230gxrw,,,,,,,,,,,,
4,instruction,causal-graph1,369578,male,47,english,United States of America,Right,R564114917230gxrw,,,,,,,,,,,,
4,instruction,causal-graph1,376090,male,47,english,United States of America,Right,R564114917230gxrw,1.0,,,,,,,,,,,
4,instruction,causal-graph1,377974,male,47,english,United States of America,Right,R564114917230gxrw,,,,,,,,,,,,
4,instruction,causal-graph1,384048,male,47,english,United States of America,Right,R564114917230gxrw,1.0,,,,,,,,,,,
4,instruction,causal-graph3,390310,male,47,english,United States of America,Right,R564114917230gxrw,1.0,,,,,,,,,,,
4,instruction,causal-graph1,391404,male,47,english,United States of America,Right,R564114917230gxrw,,,,,,,,,,,,
4,instruction,causal-graph1,392874,male,47,english,United States of America,Right,R564114917230gxrw,,,,,,,,,,,,
4,instruction,causal-graph1,394681,male,47,english,United States of America,Right,R564114917230gxrw,,,,,,,,,,,,
4,instruction,survey-multi-choice,424036,male,47,english,United States of America,Right,R564114917230gxrw,,,"{""Q0"":"" To decide what caused the activation of G"",""Q1"":"" A detector becomes active if it absorbs a radioactive particle or receives input from an active detector"",""Q2"":"" G becomes active if all of its inputs are active"",""Q3"":"" Square detectors maintain their activation over time but round detectors do not""}",,,,,,,,,
4,instruction,causal-graph1,426700,male,47,english,United States of America,Right,R564114917230gxrw,,,,,,,,,,,,
4,UBC_RT,causal-graph1,474968,male,47,english,United States of America,Right,R564114917230gxrw,3.0,19823.78500000061,,AND_Gate,Unrolled,Top,Circles,State,B,,A,nodeA20
4,RBC_RT,causal-graph3,496605,male,47,english,United States of America,Right,R564114917230gxrw,2.0,3278.9900000062767,,AND_Gate,Rolled,Top,Circles,State,B,,A,nodeA4
4,UBBS_RT,causal-graph1,516642,male,47,english,United States of America,Right,R564114917230gxrw,2.0,9617.329999993788,,AND_Gate,Unrolled,Top,Squares,Event,,B,B,nodeB2
4,chainC_RT,causal-graph1,546128,male,47,english,United States of America,Right,R564114917230gxrw,3.0,9661.26500000246,,ChainC,,Top,,,,,,nodeA26
4,chainS_R,causal-graph1,556016,male,47,english,United States of America,Right,R564114917230gxrw,1.0,8838.815000002855,,ChainS,,,,,,,,nodeB9
4,RAC_RT,causal-graph3,575538,male,47,english,United States of America,Right,R564114917230gxrw,1.0,5436.629999996396,,AND_Gate,Rolled,Top,Circles,State,A,,A,nodeB7
4,RBAC_RT,causal-graph3,603958,male,47,english,United States of America,Right,R564114917230gxrw,2.0,4649.104999996722,,AND_Gate,Rolled,Top,Circles,Event,,B,A,nodeA19
4,UBS_RB,causal-graph1,616159,male,47,english,United States of America,Right,R564114917230gxrw,1.0,10271.025000001886,,AND_Gate,Unrolled,Bottom,Squares,State,B,,A,nodeA20
4,UAS_RB,causal-graph1,627588,male,47,english,United States of America,Right,R564114917230gxrw,1.0,9351.52000000386,,AND_Gate,Unrolled,Bottom,Squares,State,A,,B,nodeB7
4,UAAS_RT,causal-graph1,640854,male,47,english,United States of America,Right,R564114917230gxrw,1.0,12156.08999999671,,AND_Gate,Unrolled,Top,Squares,Event,,A,A,nodeA7
4,UBAS_RT,causal-graph1,653855,male,47,english,United States of America,Right,R564114917230gxrw,1.0,11173.11499999778,,AND_Gate,Unrolled,Top,Squares,Event,,B,A,nodeA20
4,RAAC_RT,causal-graph3,678801,male,47,english,United States of America,Right,R564114917230gxrw,2.0,3566.7650000031567,,AND_Gate,Rolled,Top,Circles,Event,,A,A,nodeA6
4,UABS_RT,causal-graph1,695949,male,47,english,United States of America,Right,R564114917230gxrw,1.0,15491.454999995769,,AND_Gate,Unrolled,Top,Squares,Event,,A,B,nodeB7
4,UAAC_RT,causal-graph1,720325,male,47,english,United States of America,Right,R564114917230gxrw,2.0,11848.274999996647,,AND_Gate,Unrolled,Top,Circles,Event,,A,A,nodeA7
4,UBAC_RB,causal-graph1,744185,male,47,english,United States of America,Right,R564114917230gxrw,2.0,12829.625000005703,,AND_Gate,Unrolled,Bottom,Circles,Event,,B,A,nodeA20
4,instruction,causal-graph1,746560,male,47,english,United States of America,Right,R564114917230gxrw,,,,,,,,,,,,
4,comment,survey-text,799851,male,47,english,United States of America,Right,R564114917230gxrw,,53273.13999999757,"{""Q0"":""""}",,,,,,,,,
5,instruction,causal-graph1,6141,male,32,English,United States of America,Right,R564983137690gxrw,,,,,,,,,,,,
5,instruction,causal-graph1,10607,male,32,English,United States of America,Right,R564983137690gxrw,,,,,,,,,,,,
5,instruction,causal-graph1,30486,male,32,English,United States of America,Right,R564983137690gxrw,1.0,,,,,,,,,,,
5,instruction,causal-graph1,40202,male,32,English,United States of America,Right,R564983137690gxrw,,,,,,,,,,,,
5,instruction,causal-graph1,46347,male,32,English,United States of America,Right,R564983137690gxrw,,,,,,,,,,,,
5,instruction,causal-graph1,56195,male,32,English,United States of America,Right,R564983137690gxrw,1.0,,,,,,,,,,,
5,instruction,causal-graph1,63739,male,32,English,United States of America,Right,R564983137690gxrw,,,,,,,,,,,,
5,instruction,causal-graph1,83582,male,32,English,United States of America,Right,R564983137690gxrw,1.0,,,,,,,,,,,
5,instruction,causal-graph3,94039,male,32,English,United States of America,Right,R564983137690gxrw,1.0,,,,,,,,,,,
5,instruction,causal-graph1,99125,male,32,English,United States of America,Right,R564983137690gxrw,,,,,,,,,,,,
5,instruction,causal-graph1,105142,male,32,English,United States of America,Right,R564983137690gxrw,,,,,,,,,,,,
5,instruction,causal-graph1,112028,male,32,English,United States of America,Right,R564983137690gxrw,,,,,,,,,,,,
5,instruction,survey-multi-choice,164900,male,32,English,United States of America,Right,R564983137690gxrw,,,"{""Q0"":"" To decide what caused the activation of G"",""Q1"":"" A detector becomes active if it absorbs a radioactive particle or receives input from an active detector"",""Q2"":"" G becomes active if all of its inputs are active"",""Q3"":"" Square detectors maintain their activation over time but round detectors do not""}",,,,,,,,,
5,instruction,causal-graph1,166308,male,32,English,United States of America,Right,R564983137690gxrw,,,,,,,,,,,,
5,UAS_RT,causal-graph1,181611,male,32,English,United States of America,Right,R564983137690gxrw,1.0,13279.099999985192,,AND_Gate,Unrolled,Top,Squares,State,A,,B,nodeB7
5,UBAS_RT,causal-graph1,197314,male,32,English,United States of America,Right,R564983137690gxrw,1.0,13709.310000005644,,AND_Gate,Unrolled,Top,Squares,Event,,B,A,nodeB4
5,UAAS_RT,causal-graph1,211012,male,32,English,United States of America,Right,R564983137690gxrw,1.0,11573.36499998928,,AND_Gate,Unrolled,Top,Squares,Event,,A,A,nodeA7
5,UBS_RB,causal-graph1,222124,male,32,English,United States of America,Right,R564983137690gxrw,1.0,9894.349999987751,,AND_Gate,Unrolled,Bottom,Squares,State,B,,A,nodeA20
5,UBAC_RT,causal-graph1,234232,male,32,English,United States of America,Right,R564983137690gxrw,1.0,10543.089999991937,,AND_Gate,Unrolled,Top,Circles,Event,,B,A,nodeB4
5,UBC_RB,causal-graph1,245395,male,32,English,United States of America,Right,R564983137690gxrw,1.0,9984.02500001248,,AND_Gate,Unrolled,Bottom,Circles,State,B,,A,nodeA20
5,UAAC_RT,causal-graph1,259953,male,32,English,United States of America,Right,R564983137690gxrw,1.0,13063.105000008365,,AND_Gate,Unrolled,Top,Circles,Event,,A,A,nodeB7
5,RBC_RT,causal-graph3,271069,male,32,English,United States of America,Right,R564983137690gxrw,1.0,2091.0949999815784,,AND_Gate,Rolled,Top,Circles,State,B,,A,nodeA20
5,UABS_RB,causal-graph1,285233,male,32,English,United States of America,Right,R564983137690gxrw,1.0,12529.574999993201,,AND_Gate,Unrolled,Bottom,Squares,Event,,A,B,nodeA7
5,RBAC_RB,causal-graph3,299332,male,32,English,United States of America,Right,R564983137690gxrw,1.0,4178.879999992205,,AND_Gate,Rolled,Bottom,Circles,Event,,B,A,nodeB2
5,UBBS_RT,causal-graph1,310819,male,32,English,United States of America,Right,R564983137690gxrw,1.0,10140.629999979865,,AND_Gate,Unrolled,Top,Squares,Event,,B,B,nodeB2
5,chainC_RB,causal-graph1,322237,male,32,English,United States of America,Right,R564983137690gxrw,1.0,10331.119999988005,,ChainC,,Bottom,,,,,,nodeA26
5,RAC_RB,causal-graph3,335473,male,32,English,United States of America,Right,R564983137690gxrw,1.0,3128.100000001723,,AND_Gate,Rolled,Bottom,Circles,State,A,,A,nodeB7
5,chainS_R,causal-graph1,346230,male,32,English,United States of America,Right,R564983137690gxrw,1.0,8962.954999995418,,ChainS,,,,,,,,nodeB9
5,RAAC_RT,causal-graph3,358609,male,32,English,United States of America,Right,R564983137690gxrw,1.0,1663.7550000159533,,AND_Gate,Rolled,Top,Circles,Event,,A,A,nodeB7
5,instruction,causal-graph1,360676,male,32,English,United States of America,Right,R564983137690gxrw,,,,,,,,,,,,
5,comment,survey-text,362108,male,32,English,United States of America,Right,R564983137690gxrw,,1419.3599999998694,"{""Q0"":""""}",,,,,,,,,
6,instruction,causal-graph1,2523,female,24,English,United States of America,Right,R569453097380gxrw,,,,,,,,,,,,
6,instruction,causal-graph1,5582,female,24,English,United States of America,Right,R569453097380gxrw,,,,,,,,,,,,
6,instruction,causal-graph1,14354,female,24,English,United States of America,Right,R569453097380gxrw,1.0,,,,,,,,,,,
6,instruction,causal-graph1,20074,female,24,English,United States of America,Right,R569453097380gxrw,,,,,,,,,,,,
6,instruction,causal-graph1,24384,female,24,English,United States of America,Right,R569453097380gxrw,,,,,,,,,,,,
6,instruction,causal-graph1,32620,female,24,English,United States of America,Right,R569453097380gxrw,1.0,,,,,,,,,,,
6,instruction,causal-graph1,36112,female,24,English,United States of America,Right,R569453097380gxrw,,,,,,,,,,,,
6,instruction,causal-graph1,44404,female,24,English,United States of America,Right,R569453097380gxrw,1.0,,,,,,,,,,,
6,instruction,causal-graph3,53145,female,24,English,United States of America,Right,R569453097380gxrw,1.0,,,,,,,,,,,
6,instruction,causal-graph1,55078,female,24,English,United States of America,Right,R569453097380gxrw,,,,,,,,,,,,
6,instruction,causal-graph1,62069,female,24,English,United States of America,Right,R569453097380gxrw,,,,,,,,,,,,
6,instruction,causal-graph1,200650,female,24,English,United States of America,Right,R569453097380gxrw,,,,,,,,,,,,
6,instruction,survey-multi-choice,225222,female,24,English,United States of America,Right,R569453097380gxrw,,,"{""Q0"":"" To decide what caused the activation of G"",""Q1"":"" A detector becomes active if it absorbs a radioactive particle"",""Q2"":"" G becomes active if all of its inputs are active"",""Q3"":"" Square detectors maintain their activation over time but round detectors do not""}",,,,,,,,,
6,instruction,causal-graph1,226691,female,24,English,United States of America,Right,R569453097380gxrw,,,,,,,,,,,,
6,instruction,causal-graph1,227252,female,24,English,United States of America,Right,R569453097380gxrw,,,,,,,,,,,,
6,instruction,causal-graph1,227785,female,24,English,United States of America,Right,R569453097380gxrw,,,,,,,,,,,,
6,instruction,causal-graph1,234562,female,24,English,United States of America,Right,R569453097380gxrw,1.0,,,,,,,,,,,
6,instruction,causal-graph1,235289,female,24,English,United States of America,Right,R569453097380gxrw,,,,,,,,,,,,
6,instruction,causal-graph1,236735,female,24,English,United States of America,Right,R569453097380gxrw,,,,,,,,,,,,
6,instruction,causal-graph1,242345,female,24,English,United States of America,Right,R569453097380gxrw,1.0,,,,,,,,,,,
6,instruction,causal-graph1,242975,female,24,English,United States of America,Right,R569453097380gxrw,,,,,,,,,,,,
6,instruction,causal-graph1,247835,female,24,English,United States of America,Right,R569453097380gxrw,1.0,,,,,,,,,,,
6,instruction,causal-graph3,254536,female,24,English,United States of America,Right,R569453097380gxrw,1.0,,,,,,,,,,,
6,instruction,causal-graph1,255127,female,24,English,United States of America,Right,R569453097380gxrw,,,,,,,,,,,,
6,instruction,causal-graph1,257782,female,24,English,United States of America,Right,R569453097380gxrw,,,,,,,,,,,,
6,instruction,causal-graph1,258260,female,24,English,United States of America,Right,R569453097380gxrw,,,,,,,,,,,,
6,instruction,survey-multi-choice,275626,female,24,English,United States of America,Right,R569453097380gxrw,,,"{""Q0"":"" To decide what caused the activation of G"",""Q1"":"" A detector becomes active if it absorbs a radioactive particle or receives input from an active detector"",""Q2"":"" G becomes active if all of its inputs are active"",""Q3"":"" Square detectors maintain their activation over time but round detectors do not""}",,,,,,,,,
6,instruction,causal-graph1,276872,female,24,English,United States of America,Right,R569453097380gxrw,,,,,,,,,,,,
6,RBAC_RT,causal-graph3,294641,female,24,English,United States of America,Right,R569453097380gxrw,1.0,4381.204999983312,,AND_Gate,Rolled,Top,Circles,Event,,B,A,nodeA20
6,RAAC_RB,causal-graph3,307102,female,24,English,United States of America,Right,R569453097380gxrw,1.0,1387.2250000131314,,AND_Gate,Rolled,Bottom,Circles,Event,,A,A,nodeA20
6,chainC_RT,causal-graph1,317648,female,24,English,United States of America,Right,R569453097380gxrw,1.0,9687.219999963418,,ChainC,,Top,,,,,,nodeA41
6,RBC_RT,causal-graph3,329348,female,24,English,United States of America,Right,R569453097380gxrw,1.0,2587.475000007544,,AND_Gate,Rolled,Top,Circles,State,B,,A,nodeA20
6,UAAS_RB,causal-graph1,343399,female,24,English,United States of America,Right,R569453097380gxrw,1.0,12717.374999949243,,AND_Gate,Unrolled,Bottom,Squares,Event,,A,A,nodeA41
6,UAS_RT,causal-graph1,353665,female,24,English,United States of America,Right,R569453097380gxrw,1.0,8994.575000018813,,AND_Gate,Unrolled,Top,Squares,State,A,,B,nodeB19
6,chainS_R,causal-graph1,363358,female,24,English,United States of America,Right,R569453097380gxrw,1.0,8859.980000008363,,ChainS,,,,,,,,nodeB9
6,UBAC_RB,causal-graph1,374624,female,24,English,United States of America,Right,R569453097380gxrw,1.0,10033.914999978151,,AND_Gate,Unrolled,Bottom,Circles,Event,,B,A,nodeA41
6,UABS_RT,causal-graph1,387620,female,24,English,United States of America,Right,R569453097380gxrw,1.0,11818.644999992102,,AND_Gate,Unrolled,Top,Squares,Event,,A,B,nodeB19
6,UBC_RT,causal-graph1,398467,female,24,English,United States of America,Right,R569453097380gxrw,1.0,9532.379999989644,,AND_Gate,Unrolled,Top,Circles,State,B,,A,nodeA41
6,UBAS_RT,causal-graph1,409653,female,24,English,United States of America,Right,R569453097380gxrw,1.0,9920.679999981076,,AND_Gate,Unrolled,Top,Squares,Event,,B,A,nodeA41
6,RAC_RB,causal-graph3,425165,female,24,English,United States of America,Right,R569453097380gxrw,1.0,1401.2249999796038,,AND_Gate,Rolled,Bottom,Circles,State,A,,A,nodeA20
6,UAAC_RT,causal-graph1,436639,female,24,English,United States of America,Right,R569453097380gxrw,1.0,10729.905000014696,,AND_Gate,Unrolled,Top,Circles,Event,,A,A,nodeA41
6,UBBS_RT,causal-graph1,446908,female,24,English,United States of America,Right,R569453097380gxrw,1.0,9088.084999995772,,AND_Gate,Unrolled,Top,Squares,Event,,B,B,nodeB19
6,UBS_RB,causal-graph1,457886,female,24,English,United States of America,Right,R569453097380gxrw,1.0,9774.890000000596,,AND_Gate,Unrolled,Bottom,Squares,State,B,,A,nodeA41
6,instruction,causal-graph1,458919,female,24,English,United States of America,Right,R569453097380gxrw,,,,,,,,,,,,
6,comment,survey-text,461067,female,24,English,United States of America,Right,R569453097380gxrw,,2140.3300000238232,"{""Q0"":""""}",,,,,,,,,
7,instruction,causal-graph1,8692,male,39,English,United States of America,Left,R568830247900gxrw,,,,,,,,,,,,
7,instruction,causal-graph1,16501,male,39,English,United States of America,Left,R568830247900gxrw,,,,,,,,,,,,
7,instruction,causal-graph1,58327,male,39,English,United States of America,Left,R568830247900gxrw,2.0,,,,,,,,,,,
7,instruction,causal-graph1,75200,male,39,English,United States of America,Left,R568830247900gxrw,,,,,,,,,,,,
7,instruction,causal-graph1,94493,male,39,English,United States of America,Left,R568830247900gxrw,,,,,,,,,,,,
7,instruction,causal-graph1,116568,male,39,English,United States of America,Left,R568830247900gxrw,1.0,,,,,,,,,,,
7,instruction,causal-graph1,129921,male,39,English,United States of America,Left,R568830247900gxrw,,,,,,,,,,,,
7,instruction,causal-graph1,165888,male,39,English,United States of America,Left,R568830247900gxrw,1.0,,,,,,,,,,,
7,instruction,causal-graph3,199184,male,39,English,United States of America,Left,R568830247900gxrw,1.0,,,,,,,,,,,
7,instruction,causal-graph1,214282,male,39,English,United States of America,Left,R568830247900gxrw,,,,,,,,,,,,
7,instruction,causal-graph1,220653,male,39,English,United States of America,Left,R568830247900gxrw,,,,,,,,,,,,
7,instruction,causal-graph1,241159,male,39,English,United States of America,Left,R568830247900gxrw,,,,,,,,,,,,
7,instruction,survey-multi-choice,319933,male,39,English,United States of America,Left,R568830247900gxrw,,,"{""Q0"":"" To decide what caused the activation of G"",""Q1"":"" A detector becomes active if it absorbs a radioactive particle"",""Q2"":"" G becomes active if at least one of its inputs is active"",""Q3"":"" Square detectors maintain their activation over time but round detectors do not""}",,,,,,,,,
7,instruction,causal-graph1,325565,male,39,English,United States of America,Left,R568830247900gxrw,,,,,,,,,,,,
7,instruction,causal-graph1,329734,male,39,English,United States of America,Left,R568830247900gxrw,,,,,,,,,,,,
7,instruction,causal-graph1,335330,male,39,English,United States of America,Left,R568830247900gxrw,,,,,,,,,,,,
7,instruction,causal-graph1,360884,male,39,English,United States of America,Left,R568830247900gxrw,1.0,,,,,,,,,,,
7,instruction,causal-graph1,375417,male,39,English,United States of America,Left,R568830247900gxrw,,,,,,,,,,,,
7,instruction,causal-graph1,378086,male,39,English,United States of America,Left,R568830247900gxrw,,,,,,,,,,,,
7,instruction,causal-graph1,392929,male,39,English,United States of America,Left,R568830247900gxrw,1.0,,,,,,,,,,,
7,instruction,causal-graph1,398354,male,39,English,United States of America,Left,R568830247900gxrw,,,,,,,,,,,,
7,instruction,causal-graph1,417101,male,39,English,United States of America,Left,R568830247900gxrw,1.0,,,,,,,,,,,
7,instruction,causal-graph3,425933,male,39,English,United States of America,Left,R568830247900gxrw,1.0,,,,,,,,,,,
7,instruction,causal-graph1,432818,male,39,English,United States of America,Left,R568830247900gxrw,,,,,,,,,,,,
7,instruction,causal-graph1,434525,male,39,English,United States of America,Left,R568830247900gxrw,,,,,,,,,,,,
7,instruction,causal-graph1,438051,male,39,English,United States of America,Left,R568830247900gxrw,,,,,,,,,,,,
7,instruction,survey-multi-choice,480796,male,39,English,United States of America,Left,R568830247900gxrw,,,"{""Q0"":"" To decide what caused the activation of G"",""Q1"":"" A detector becomes active if it absorbs a radioactive particle"",""Q2"":"" G becomes active if all of its inputs are active"",""Q3"":"" Square detectors maintain their activation over time but round detectors do not""}",,,,,,,,,
7,instruction,causal-graph1,483733,male,39,English,United States of America,Left,R568830247900gxrw,,,,,,,,,,,,
7,instruction,causal-graph1,487033,male,39,English,United States of America,Left,R568830247900gxrw,,,,,,,,,,,,
7,instruction,causal-graph1,487622,male,39,English,United States of America,Left,R568830247900gxrw,,,,,,,,,,,,
7,instruction,causal-graph1,491964,male,39,English,United States of America,Left,R568830247900gxrw,1.0,,,,,,,,,,,
7,instruction,causal-graph1,492873,male,39,English,United States of America,Left,R568830247900gxrw,,,,,,,,,,,,
7,instruction,causal-graph1,493597,male,39,English,United States of America,Left,R568830247900gxrw,,,,,,,,,,,,
7,instruction,causal-graph1,499074,male,39,English,United States of America,Left,R568830247900gxrw,1.0,,,,,,,,,,,
7,instruction,causal-graph1,499625,male,39,English,United States of America,Left,R568830247900gxrw,,,,,,,,,,,,
7,instruction,causal-graph1,504991,male,39,English,United States of America,Left,R568830247900gxrw,1.0,,,,,,,,,,,
7,instruction,causal-graph3,511360,male,39,English,United States of America,Left,R568830247900gxrw,1.0,,,,,,,,,,,
7,instruction,causal-graph1,511932,male,39,English,United States of America,Left,R568830247900gxrw,,,,,,,,,,,,
7,instruction,causal-graph1,512531,male,39,English,United States of America,Left,R568830247900gxrw,,,,,,,,,,,,
7,instruction,causal-graph1,513302,male,39,English,United States of America,Left,R568830247900gxrw,,,,,,,,,,,,
7,instruction,survey-multi-choice,553418,male,39,English,United States of America,Left,R568830247900gxrw,,,"{""Q0"":"" To decide what caused the activation of G"",""Q1"":"" A detector becomes active if it absorbs a radioactive particle or receives input from an active detector"",""Q2"":"" G becomes active if all of its inputs are active"",""Q3"":"" Square detectors maintain their activation over time but round detectors do not""}",,,,,,,,,
7,instruction,causal-graph1,563532,male,39,English,United States of America,Left,R568830247900gxrw,,,,,,,,,,,,
7,UABS_LT,causal-graph1,601572,male,39,English,United States of America,Left,R568830247900gxrw,1.0,30674.424999997485,,AND_Gate,Unrolled,Top,Squares,Event,,A,B,nodeA41
7,RAAC_LT,causal-graph3,630885,male,39,English,United States of America,Left,R568830247900gxrw,1.0,16600.82500000135,,AND_Gate,Rolled,Top,Circles,Event,,A,A,nodeB19
7,RAC_LT,causal-graph3,654218,male,39,English,United States of America,Left,R568830247900gxrw,1.0,7217.885000005597,,AND_Gate,Rolled,Top,Circles,State,A,,A,nodeA20
7,UBS_LB,causal-graph1,670710,male,39,English,United States of America,Left,R568830247900gxrw,1.0,14889.694999997968,,AND_Gate,Unrolled,Bottom,Squares,State,B,,A,nodeA41
7,chainC_LB,causal-graph1,690361,male,39,English,United States of America,Left,R568830247900gxrw,1.0,17436.25500000047,,ChainC,,Bottom,,,,,,nodeA41
7,RBAC_LB,causal-graph3,717764,male,39,English,United States of America,Left,R568830247900gxrw,1.0,15756.099999998696,,AND_Gate,Rolled,Bottom,Circles,Event,,B,A,nodeB2
7,UAAC_LB,causal-graph1,734554,male,39,English,United States of America,Left,R568830247900gxrw,1.0,15434.784999997588,,AND_Gate,Unrolled,Bottom,Circles,Event,,A,A,nodeA41
7,UBAC_LT,causal-graph1,750610,male,39,English,United States of America,Left,R568830247900gxrw,1.0,13786.139999996522,,AND_Gate,Unrolled,Top,Circles,Event,,B,A,nodeB4
7,chainS_L,causal-graph1,761546,male,39,English,United States of America,Left,R568830247900gxrw,1.0,9190.425000000743,,ChainS,,,,,,,,nodeB9
7,UBBS_LT,causal-graph1,775226,male,39,English,United States of America,Left,R568830247900gxrw,1.0,12055.540000001201,,AND_Gate,Unrolled,Top,Squares,Event,,B,B,nodeB19
7,RBC_LT,causal-graph3,788030,male,39,English,United States of America,Left,R568830247900gxrw,1.0,3471.4200000016717,,AND_Gate,Rolled,Top,Circles,State,B,,A,nodeA20
7,UAAS_LB,causal-graph1,802710,male,39,English,United States of America,Left,R568830247900gxrw,1.0,13482.850000000328,,AND_Gate,Unrolled,Bottom,Squares,Event,,A,A,nodeA41
7,UAS_LT,causal-graph1,815895,male,39,English,United States of America,Left,R568830247900gxrw,1.0,11289.950000005774,,AND_Gate,Unrolled,Top,Squares,State,A,,B,nodeB7
7,UBC_LB,causal-graph1,832970,male,39,English,United States of America,Left,R568830247900gxrw,1.0,15766.724999994041,,AND_Gate,Unrolled,Bottom,Circles,State,B,,A,nodeA41
7,UBAS_LB,causal-graph1,845976,male,39,English,United States of America,Left,R568830247900gxrw,1.0,11500.119999996969,,AND_Gate,Unrolled,Bottom,Squares,Event,,B,A,nodeA41
7,instruction,causal-graph1,850628,male,39,English,United States of America,Left,R568830247900gxrw,,,,,,,,,,,,
7,comment,survey-text,894376,male,39,English,United States of America,Left,R568830247900gxrw,,43743.490000000806,"{""Q0"":""It was certainly an interesting task to have taken part in.""}",,,,,,,,,
8,instruction,causal-graph1,10011,male,26,English,United States of America,Left,R562056207610gxrw,,,,,,,,,,,,
8,instruction,causal-graph1,15906,male,26,English,United States of America,Left,R562056207610gxrw,,,,,,,,,,,,
8,instruction,causal-graph1,44307,male,26,English,United States of America,Left,R562056207610gxrw,1.0,,,,,,,,,,,
8,instruction,causal-graph1,57610,male,26,English,United States of America,Left,R562056207610gxrw,,,,,,,,,,,,
8,instruction,causal-graph1,69674,male,26,English,United States of America,Left,R562056207610gxrw,,,,,,,,,,,,
8,instruction,causal-graph1,152435,male,26,English,United States of America,Left,R562056207610gxrw,2.0,,,,,,,,,,,
8,instruction,causal-graph1,172387,male,26,English,United States of America,Left,R562056207610gxrw,,,,,,,,,,,,
8,instruction,causal-graph1,194874,male,26,English,United States of America,Left,R562056207610gxrw,1.0,,,,,,,,,,,
8,instruction,causal-graph3,211739,male,26,English,United States of America,Left,R562056207610gxrw,1.0,,,,,,,,,,,
8,instruction,causal-graph1,219859,male,26,English,United States of America,Left,R562056207610gxrw,,,,,,,,,,,,
8,instruction,causal-graph1,226098,male,26,English,United States of America,Left,R562056207610gxrw,,,,,,,,,,,,
8,instruction,causal-graph1,233843,male,26,English,United States of America,Left,R562056207610gxrw,,,,,,,,,,,,
8,instruction,survey-multi-choice,330088,male,26,English,United States of America,Left,R562056207610gxrw,,,"{""Q0"":"" To decide what caused the activation of G"",""Q1"":"" A detector becomes active if it receives input from an active detector"",""Q2"":"" G becomes active if all of its inputs are active"",""Q3"":"" Square detectors maintain their activation over time but round detectors do not""}",,,,,,,,,
8,instruction,causal-graph1,336411,male,26,English,United States of America,Left,R562056207610gxrw,,,,,,,,,,,,
8,instruction,causal-graph1,338595,male,26,English,United States of America,Left,R562056207610gxrw,,,,,,,,,,,,
8,instruction,causal-graph1,340330,male,26,English,United States of America,Left,R562056207610gxrw,,,,,,,,,,,,
8,instruction,causal-graph1,363843,male,26,English,United States of America,Left,R562056207610gxrw,1.0,,,,,,,,,,,
8,instruction,causal-graph1,365706,male,26,English,United States of America,Left,R562056207610gxrw,,,,,,,,,,,,
8,instruction,causal-graph1,368267,male,26,English,United States of America,Left,R562056207610gxrw,,,,,,,,,,,,
8,instruction,causal-graph1,379235,male,26,English,United States of America,Left,R562056207610gxrw,1.0,,,,,,,,,,,
8,instruction,causal-graph1,381570,male,26,English,United States of America,Left,R562056207610gxrw,,,,,,,,,,,,
8,instruction,causal-graph1,396410,male,26,English,United States of America,Left,R562056207610gxrw,1.0,,,,,,,,,,,
8,instruction,causal-graph3,403667,male,26,English,United States of America,Left,R562056207610gxrw,1.0,,,,,,,,,,,
8,instruction,causal-graph1,406250,male,26,English,United States of America,Left,R562056207610gxrw,,,,,,,,,,,,
8,instruction,causal-graph1,408139,male,26,English,United States of America,Left,R562056207610gxrw,,,,,,,,,,,,
8,instruction,causal-graph1,411363,male,26,English,United States of America,Left,R562056207610gxrw,,,,,,,,,,,,
8,instruction,survey-multi-choice,429652,male,26,English,United States of America,Left,R562056207610gxrw,,,"{""Q0"":"" To decide what caused the activation of G"",""Q1"":"" A detector becomes active if it absorbs a radioactive particle"",""Q2"":"" G becomes active if all of its inputs are active"",""Q3"":"" Square detectors maintain their activation over time but round detectors do not""}",,,,,,,,,
8,instruction,causal-graph1,432010,male,26,English,United States of America,Left,R562056207610gxrw,,,,,,,,,,,,
8,instruction,causal-graph1,437043,male,26,English,United States of America,Left,R562056207610gxrw,,,,,,,,,,,,
8,instruction,causal-graph1,439451,male,26,English,United States of America,Left,R562056207610gxrw,,,,,,,,,,,,
8,instruction,causal-graph1,453138,male,26,English,United States of America,Left,R562056207610gxrw,1.0,,,,,,,,,,,
8,instruction,causal-graph1,454778,male,26,English,United States of America,Left,R562056207610gxrw,,,,,,,,,,,,
8,instruction,causal-graph1,456594,male,26,English,United States of America,Left,R562056207610gxrw,,,,,,,,,,,,
8,instruction,causal-graph1,465314,male,26,English,United States of America,Left,R562056207610gxrw,1.0,,,,,,,,,,,
8,instruction,causal-graph1,473106,male,26,English,United States of America,Left,R562056207610gxrw,,,,,,,,,,,,
8,instruction,causal-graph1,490195,male,26,English,United States of America,Left,R562056207610gxrw,1.0,,,,,,,,,,,
8,instruction,causal-graph3,498906,male,26,English,United States of America,Left,R562056207610gxrw,1.0,,,,,,,,,,,
8,instruction,causal-graph1,500443,male,26,English,United States of America,Left,R562056207610gxrw,,,,,,,,,,,,
8,instruction,causal-graph1,502034,male,26,English,United States of America,Left,R562056207610gxrw,,,,,,,,,,,,
8,instruction,causal-graph1,503267,male,26,English,United States of America,Left,R562056207610gxrw,,,,,,,,,,,,
8,instruction,survey-multi-choice,561339,male,26,English,United States of America,Left,R562056207610gxrw,,,"{""Q0"":"" To decide what caused the activation of G"",""Q1"":"" A detector becomes active if it absorbs a radioactive particle"",""Q2"":"" G becomes active if it absorbs a radioactive particle"",""Q3"":"" Square detectors maintain their activation over time but round detectors do not""}",,,,,,,,,
8,instruction,causal-graph1,563443,male,26,English,United States of America,Left,R562056207610gxrw,,,,,,,,,,,,
8,instruction,causal-graph1,564723,male,26,English,United States of America,Left,R562056207610gxrw,,,,,,,,,,,,
8,instruction,causal-graph1,565963,male,26,English,United States of America,Left,R562056207610gxrw,,,,,,,,,,,,
8,instruction,causal-graph1,571803,male,26,English,United States of America,Left,R562056207610gxrw,1.0,,,,,,,,,,,
8,instruction,causal-graph1,584482,male,26,English,United States of America,Left,R562056207610gxrw,,,,,,,,,,,,
8,instruction,causal-graph1,586163,male,26,English,United States of America,Left,R562056207610gxrw,,,,,,,,,,,,
8,instruction,causal-graph1,592682,male,26,English,United States of America,Left,R562056207610gxrw,1.0,,,,,,,,,,,
8,instruction,causal-graph1,595258,male,26,English,United States of America,Left,R562056207610gxrw,,,,,,,,,,,,
8,instruction,causal-graph1,607147,male,26,English,United States of America,Left,R562056207610gxrw,1.0,,,,,,,,,,,
8,instruction,causal-graph3,616900,male,26,English,United States of America,Left,R562056207610gxrw,1.0,,,,,,,,,,,
8,instruction,causal-graph1,618202,male,26,English,United States of America,Left,R562056207610gxrw,,,,,,,,,,,,
8,instruction,causal-graph1,619379,male,26,English,United States of America,Left,R562056207610gxrw,,,,,,,,,,,,
8,instruction,causal-graph1,620555,male,26,English,United States of America,Left,R562056207610gxrw,,,,,,,,,,,,
8,instruction,survey-multi-choice,642980,male,26,English,United States of America,Left,R562056207610gxrw,,,"{""Q0"":"" To find out if the Gauge of Critical Moment (G) is activated or not"",""Q1"":"" A detector becomes active if it absorbs a radioactive particle"",""Q2"":"" G becomes active if all of its inputs are active"",""Q3"":"" Square detectors maintain their activation over time but round detectors do not""}",,,,,,,,,
8,instruction,causal-graph1,645395,male,26,English,United States of America,Left,R562056207610gxrw,,,,,,,,,,,,
8,instruction,causal-graph1,646955,male,26,English,United States of America,Left,R562056207610gxrw,,,,,,,,,,,,
8,instruction,causal-graph1,647883,male,26,English,United States of America,Left,R562056207610gxrw,,,,,,,,,,,,
8,instruction,causal-graph1,653803,male,26,English,United States of America,Left,R562056207610gxrw,1.0,,,,,,,,,,,
8,instruction,causal-graph1,655115,male,26,English,United States of America,Left,R562056207610gxrw,,,,,,,,,,,,
8,instruction,causal-graph1,656283,male,26,English,United States of America,Left,R562056207610gxrw,,,,,,,,,,,,
8,instruction,causal-graph1,662555,male,26,English,United States of America,Left,R562056207610gxrw,1.0,,,,,,,,,,,
8,instruction,causal-graph1,663747,male,26,English,United States of America,Left,R562056207610gxrw,,,,,,,,,,,,
8,instruction,causal-graph1,669603,male,26,English,United States of America,Left,R562056207610gxrw,1.0,,,,,,,,,,,
8,instruction,causal-graph3,675978,male,26,English,United States of America,Left,R562056207610gxrw,1.0,,,,,,,,,,,
8,instruction,causal-graph1,677315,male,26,English,United States of America,Left,R562056207610gxrw,,,,,,,,,,,,
8,instruction,causal-graph1,678556,male,26,English,United States of America,Left,R562056207610gxrw,,,,,,,,,,,,
8,instruction,causal-graph1,693115,male,26,English,United States of America,Left,R562056207610gxrw,,,,,,,,,,,,
8,instruction,survey-multi-choice,718500,male,26,English,United States of America,Left,R562056207610gxrw,,,"{""Q0"":"" To decide what caused the activation of G"",""Q1"":"" A detector becomes active if it absorbs a radioactive particle or receives input from an active detector"",""Q2"":"" G becomes active if all of its inputs are active"",""Q3"":"" Square detectors maintain their activation over time but round detectors do not""}",,,,,,,,,
8,instruction,causal-graph1,723587,male,26,English,United States of America,Left,R562056207610gxrw,,,,,,,,,,,,
8,RAAC_LB,causal-graph3,750939,male,26,English,United States of America,Left,R562056207610gxrw,1.0,15278.0,,AND_Gate,Rolled,Bottom,Circles,Event,,A,A,nodeB19
8,RBAC_LB,causal-graph3,766683,male,26,English,United States of America,Left,R562056207610gxrw,1.0,4952.0,,AND_Gate,Rolled,Bottom,Circles,Event,,B,A,nodeA20
8,UBAC_LB,causal-graph1,787539,male,26,English,United States of America,Left,R562056207610gxrw,1.0,19093.0,,AND_Gate,Unrolled,Bottom,Circles,Event,,B,A,nodeA41
8,UBS_LB,causal-graph1,800675,male,26,English,United States of America,Left,R562056207610gxrw,1.0,10461.0,,AND_Gate,Unrolled,Bottom,Squares,State,B,,A,nodeA41
8,UABS_LB,causal-graph1,815995,male,26,English,United States of America,Left,R562056207610gxrw,1.0,13052.0,,AND_Gate,Unrolled,Bottom,Squares,Event,,A,B,nodeB19
8,UAS_LT,causal-graph1,827939,male,26,English,United States of America,Left,R562056207610gxrw,1.0,9733.0,,AND_Gate,Unrolled,Top,Squares,State,A,,B,nodeB19
8,chainS_L,causal-graph1,839811,male,26,English,United States of America,Left,R562056207610gxrw,1.0,9365.0,,ChainS,,,,,,,,nodeB19
8,UBBS_LB,causal-graph1,851619,male,26,English,United States of America,Left,R562056207610gxrw,1.0,9374.0,,AND_Gate,Unrolled,Bottom,Squares,Event,,B,B,nodeB19
8,UAAC_LB,causal-graph1,864403,male,26,English,United States of America,Left,R562056207610gxrw,1.0,10980.0,,AND_Gate,Unrolled,Bottom,Circles,Event,,A,A,nodeA41
8,UBAS_LB,causal-graph1,877843,male,26,English,United States of America,Left,R562056207610gxrw,1.0,10163.0,,AND_Gate,Unrolled,Bottom,Squares,Event,,B,A,nodeA41
8,RBC_LB,causal-graph3,889052,male,26,English,United States of America,Left,R562056207610gxrw,1.0,1851.0,,AND_Gate,Rolled,Bottom,Circles,State,B,,A,nodeA20
8,RAC_LB,causal-graph3,903683,male,26,English,United States of America,Left,R562056207610gxrw,1.0,4383.0,,AND_Gate,Rolled,Bottom,Circles,State,A,,A,nodeA20
8,chainC_LT,causal-graph1,914892,male,26,English,United States of America,Left,R562056207610gxrw,1.0,9452.0,,ChainC,,Top,,,,,,nodeA41
8,UBC_LB,causal-graph1,929891,male,26,English,United States of America,Left,R562056207610gxrw,1.0,10417.0,,AND_Gate,Unrolled,Bottom,Circles,State,B,,A,nodeA41
8,UAAS_LB,causal-graph1,954955,male,26,English,United States of America,Left,R562056207610gxrw,1.0,17804.0,,AND_Gate,Unrolled,Bottom,Squares,Event,,A,A,nodeA41
8,instruction,causal-graph1,957683,male,26,English,United States of America,Left,R562056207610gxrw,,,,,,,,,,,,
8,comment,survey-text,992644,male,26,English,United States of America,Left,R562056207610gxrw,,34955.0,"{""Q0"":""interesting HIT""}",,,,,,,,,
9,instruction,causal-graph1,20187,female,30,English ,United States of America,Right,R563104187830gxrw,,,,,,,,,,,,
9,instruction,causal-graph1,22963,female,30,English ,United States of America,Right,R563104187830gxrw,,,,,,,,,,,,
9,instruction,causal-graph1,39383,female,30,English ,United States of America,Right,R563104187830gxrw,1.0,,,,,,,,,,,
9,instruction,causal-graph1,57816,female,30,English ,United States of America,Right,R563104187830gxrw,,,,,,,,,,,,
9,instruction,causal-graph1,67614,female,30,English ,United States of America,Right,R563104187830gxrw,,,,,,,,,,,,
9,instruction,causal-graph1,84699,female,30,English ,United States of America,Right,R563104187830gxrw,2.0,,,,,,,,,,,
9,instruction,causal-graph1,92285,female,30,English ,United States of America,Right,R563104187830gxrw,,,,,,,,,,,,
9,instruction,causal-graph1,108351,female,30,English ,United States of America,Right,R563104187830gxrw,1.0,,,,,,,,,,,
9,instruction,causal-graph3,167006,female,30,English ,United States of America,Right,R563104187830gxrw,2.0,,,,,,,,,,,
9,instruction,causal-graph1,169107,female,30,English ,United States of America,Right,R563104187830gxrw,,,,,,,,,,,,
9,instruction,causal-graph1,172169,female,30,English ,United States of America,Right,R563104187830gxrw,,,,,,,,,,,,
9,instruction,causal-graph1,178554,female,30,English ,United States of America,Right,R563104187830gxrw,,,,,,,,,,,,
9,instruction,survey-multi-choice,221516,female,30,English ,United States of America,Right,R563104187830gxrw,,,"{""Q0"":"" To decide what caused the activation of G"",""Q1"":"" A detector becomes active if it absorbs a radioactive particle or receives input from an active detector"",""Q2"":"" G becomes active if at least one of its inputs is active"",""Q3"":"" Square detectors maintain their activation over time but round detectors do not""}",,,,,,,,,
9,instruction,causal-graph1,225056,female,30,English ,United States of America,Right,R563104187830gxrw,,,,,,,,,,,,
9,instruction,causal-graph1,250643,female,30,English ,United States of America,Right,R563104187830gxrw,,,,,,,,,,,,
9,instruction,causal-graph1,252679,female,30,English ,United States of America,Right,R563104187830gxrw,,,,,,,,,,,,
9,instruction,causal-graph1,261643,female,30,English ,United States of America,Right,R563104187830gxrw,1.0,,,,,,,,,,,
9,instruction,causal-graph1,262962,female,30,English ,United States of America,Right,R563104187830gxrw,,,,,,,,,,,,
9,instruction,causal-graph1,266610,female,30,English ,United States of America,Right,R563104187830gxrw,,,,,,,,,,,,
9,instruction,causal-graph1,272909,female,30,English ,United States of America,Right,R563104187830gxrw,1.0,,,,,,,,,,,
9,instruction,causal-graph1,276028,female,30,English ,United States of America,Right,R563104187830gxrw,,,,,,,,,,,,
9,instruction,causal-graph1,287179,female,30,English ,United States of America,Right,R563104187830gxrw,1.0,,,,,,,,,,,
9,instruction,causal-graph3,295226,female,30,English ,United States of America,Right,R563104187830gxrw,1.0,,,,,,,,,,,
9,instruction,causal-graph1,296629,female,30,English ,United States of America,Right,R563104187830gxrw,,,,,,,,,,,,
9,instruction,causal-graph1,307260,female,30,English ,United States of America,Right,R563104187830gxrw,,,,,,,,,,,,
9,instruction,causal-graph1,309413,female,30,English ,United States of America,Right,R563104187830gxrw,,,,,,,,,,,,
9,instruction,survey-multi-choice,331713,female,30,English ,United States of America,Right,R563104187830gxrw,,,"{""Q0"":"" To decide what caused the activation of G"",""Q1"":"" A detector becomes active if it absorbs a radioactive particle or receives input from an active detector"",""Q2"":"" G becomes active if it absorbs a radioactive particle"",""Q3"":"" Square detectors maintain their activation over time but round detectors do not""}",,,,,,,,,
9,instruction,causal-graph1,334148,female,30,English ,United States of America,Right,R563104187830gxrw,,,,,,,,,,,,
9,instruction,causal-graph1,335929,female,30,English ,United States of America,Right,R563104187830gxrw,,,,,,,,,,,,
9,instruction,causal-graph1,338194,female,30,English ,United States of America,Right,R563104187830gxrw,,,,,,,,,,,,
9,instruction,causal-graph1,348303,female,30,English ,United States of America,Right,R563104187830gxrw,1.0,,,,,,,,,,,
9,instruction,causal-graph1,353099,female,30,English ,United States of America,Right,R563104187830gxrw,,,,,,,,,,,,
9,instruction,causal-graph1,354180,female,30,English ,United States of America,Right,R563104187830gxrw,,,,,,,,,,,,
9,instruction,causal-graph1,360745,female,30,English ,United States of America,Right,R563104187830gxrw,1.0,,,,,,,,,,,
9,instruction,causal-graph1,362686,female,30,English ,United States of America,Right,R563104187830gxrw,,,,,,,,,,,,
9,instruction,causal-graph1,372646,female,30,English ,United States of America,Right,R563104187830gxrw,1.0,,,,,,,,,,,
9,instruction,causal-graph3,381982,female,30,English ,United States of America,Right,R563104187830gxrw,1.0,,,,,,,,,,,
9,instruction,causal-graph1,383102,female,30,English ,United States of America,Right,R563104187830gxrw,,,,,,,,,,,,
9,instruction,causal-graph1,386750,female,30,English ,United States of America,Right,R563104187830gxrw,,,,,,,,,,,,
9,instruction,causal-graph1,387449,female,30,English ,United States of America,Right,R563104187830gxrw,,,,,,,,,,,,
9,instruction,survey-multi-choice,410916,female,30,English ,United States of America,Right,R563104187830gxrw,,,"{""Q0"":"" To decide what caused the activation of G"",""Q1"":"" A detector becomes active if it absorbs a radioactive particle"",""Q2"":"" G becomes active if all of its inputs are active"",""Q3"":"" Square detectors maintain their activation over time but round detectors do not""}",,,,,,,,,
9,instruction,causal-graph1,412969,female,30,English ,United States of America,Right,R563104187830gxrw,,,,,,,,,,,,
9,instruction,causal-graph1,414488,female,30,English ,United States of America,Right,R563104187830gxrw,,,,,,,,,,,,
9,instruction,causal-graph1,416317,female,30,English ,United States of America,Right,R563104187830gxrw,,,,,,,,,,,,
9,instruction,causal-graph1,424289,female,30,English ,United States of America,Right,R563104187830gxrw,1.0,,,,,,,,,,,
9,instruction,causal-graph1,425385,female,30,English ,United States of America,Right,R563104187830gxrw,,,,,,,,,,,,
9,instruction,causal-graph1,429567,female,30,English ,United States of America,Right,R563104187830gxrw,,,,,,,,,,,,
9,instruction,causal-graph1,435848,female,30,English ,United States of America,Right,R563104187830gxrw,1.0,,,,,,,,,,,
9,instruction,causal-graph1,437852,female,30,English ,United States of America,Right,R563104187830gxrw,,,,,,,,,,,,
9,instruction,causal-graph1,450758,female,30,English ,United States of America,Right,R563104187830gxrw,1.0,,,,,,,,,,,
9,instruction,causal-graph3,459939,female,30,English ,United States of America,Right,R563104187830gxrw,1.0,,,,,,,,,,,
9,instruction,causal-graph1,465874,female,30,English ,United States of America,Right,R563104187830gxrw,,,,,,,,,,,,
9,instruction,causal-graph1,475189,female,30,English ,United States of America,Right,R563104187830gxrw,,,,,,,,,,,,
9,instruction,causal-graph1,477436,female,30,English ,United States of America,Right,R563104187830gxrw,,,,,,,,,,,,
9,instruction,survey-multi-choice,517354,female,30,English ,United States of America,Right,R563104187830gxrw,,,"{""Q0"":"" To decide what caused the activation of G"",""Q1"":"" A detector becomes active if it absorbs a radioactive particle"",""Q2"":"" G becomes active if all of its inputs are active"",""Q3"":"" Square detectors maintain their activation over time but round detectors do not""}",,,,,,,,,
9,instruction,causal-graph1,519643,female,30,English ,United States of America,Right,R563104187830gxrw,,,,,,,,,,,,
9,instruction,causal-graph1,521143,female,30,English ,United States of America,Right,R563104187830gxrw,,,,,,,,,,,,
9,instruction,causal-graph1,524811,female,30,English ,United States of America,Right,R563104187830gxrw,,,,,,,,,,,,
9,instruction,causal-graph1,534194,female,30,English ,United States of America,Right,R563104187830gxrw,1.0,,,,,,,,,,,
9,instruction,causal-graph1,534419,female,30,English ,United States of America,Right,R563104187830gxrw,,,,,,,,,,,,
9,instruction,causal-graph1,535003,female,30,English ,United States of America,Right,R563104187830gxrw,,,,,,,,,,,,
9,instruction,causal-graph1,539986,female,30,English ,United States of America,Right,R563104187830gxrw,1.0,,,,,,,,,,,
9,instruction,causal-graph1,541655,female,30,English ,United States of America,Right,R563104187830gxrw,,,,,,,,,,,,
9,instruction,causal-graph1,546704,female,30,English ,United States of America,Right,R563104187830gxrw,1.0,,,,,,,,,,,
9,instruction,causal-graph3,553443,female,30,English ,United States of America,Right,R563104187830gxrw,1.0,,,,,,,,,,,
9,instruction,causal-graph1,553966,female,30,English ,United States of America,Right,R563104187830gxrw,,,,,,,,,,,,
9,instruction,causal-graph1,554910,female,30,English ,United States of America,Right,R563104187830gxrw,,,,,,,,,,,,
9,instruction,causal-graph1,555477,female,30,English ,United States of America,Right,R563104187830gxrw,,,,,,,,,,,,
9,instruction,survey-multi-choice,570945,female,30,English ,United States of America,Right,R563104187830gxrw,,,"{""Q0"":"" To decide what caused the activation of G"",""Q1"":"" A detector becomes active if it absorbs a radioactive particle or receives input from an active detector"",""Q2"":"" G becomes active if all of its inputs are active"",""Q3"":"" Square detectors maintain their activation over time but round detectors do not""}",,,,,,,,,
9,instruction,causal-graph1,573182,female,30,English ,United States of America,Right,R563104187830gxrw,,,,,,,,,,,,
9,RBC_RT,causal-graph3,618204,female,30,English ,United States of America,Right,R563104187830gxrw,3.0,11971.0,,AND_Gate,Rolled,Top,Circles,State,B,,A,nodeA4
9,UBAS_RT,causal-graph1,638477,female,30,English ,United States of America,Right,R563104187830gxrw,1.0,15015.0,,AND_Gate,Unrolled,Top,Squares,Event,,B,A,nodeA20
9,UABS_RT,causal-graph1,661329,female,30,English ,United States of America,Right,R563104187830gxrw,1.0,21234.0,,AND_Gate,Unrolled,Top,Squares,Event,,A,B,nodeB7
9,UBAC_RB,causal-graph1,695368,female,30,English ,United States of America,Right,R563104187830gxrw,2.0,18440.0,,AND_Gate,Unrolled,Bottom,Circles,Event,,B,A,nodeA20
9,UBBS_RB,causal-graph1,713934,female,30,English ,United States of America,Right,R563104187830gxrw,1.0,15068.0,,AND_Gate,Unrolled,Bottom,Squares,Event,,B,B,nodeB2
9,UAS_RB,causal-graph1,734080,female,30,English ,United States of America,Right,R563104187830gxrw,1.0,12753.000000000116,,AND_Gate,Unrolled,Bottom,Squares,State,A,,B,nodeB7
9,UBS_RT,causal-graph1,756051,female,30,English ,United States of America,Right,R563104187830gxrw,1.0,20465.0,,AND_Gate,Unrolled,Top,Squares,State,B,,A,nodeA20
9,RAAC_RT,causal-graph3,772247,female,30,English ,United States of America,Right,R563104187830gxrw,1.0,2815.0,,AND_Gate,Rolled,Top,Circles,Event,,A,A,nodeB7
9,RAC_RB,causal-graph3,818701,female,30,English ,United States of America,Right,R563104187830gxrw,2.0,8318.0,,AND_Gate,Rolled,Bottom,Circles,State,A,,A,nodeB7
9,UAAS_RB,causal-graph1,834422,female,30,English ,United States of America,Right,R563104187830gxrw,1.0,14358.0,,AND_Gate,Unrolled,Bottom,Squares,Event,,A,A,nodeA7
9,UBC_RT,causal-graph1,852414,female,30,English ,United States of America,Right,R563104187830gxrw,1.0,14744.0,,AND_Gate,Unrolled,Top,Circles,State,B,,A,nodeA19
9,RBAC_RB,causal-graph3,868286,female,30,English ,United States of America,Right,R563104187830gxrw,1.0,3418.0,,AND_Gate,Rolled,Bottom,Circles,Event,,B,A,nodeB2
9,chainS_R,causal-graph1,914604,female,30,English ,United States of America,Right,R563104187830gxrw,1.0,43579.0,,ChainS,,,,,,,,nodeB9
9,chainC_RT,causal-graph1,978108,female,30,English ,United States of America,Right,R563104187830gxrw,1.0,20311.0,,ChainC,,Top,,,,,,nodeA27
9,UAAC_RT,causal-graph1,1005277,female,30,English ,United States of America,Right,R563104187830gxrw,1.0,23210.0,,AND_Gate,Unrolled,Top,Circles,Event,,A,A,nodeA6
9,instruction,causal-graph1,1008373,female,30,English ,United States of America,Right,R563104187830gxrw,,,,,,,,,,,,
9,comment,survey-text,1027813,female,30,English ,United States of America,Right,R563104187830gxrw,,19414.0,"{""Q0"":""I wish I knew if I was correct in my answers thats all""}",,,,,,,,,
10,instruction,causal-graph1,11162,male,23,English,United States of America,Right,R565046417430gxrw,,,,,,,,,,,,
10,instruction,causal-graph1,83650,male,23,English,United States of America,Right,R565046417430gxrw,,,,,,,,,,,,
10,instruction,causal-graph1,238434,male,23,English,United States of America,Right,R565046417430gxrw,1.0,,,,,,,,,,,
10,instruction,causal-graph1,246193,male,23,English,United States of America,Right,R565046417430gxrw,,,,,,,,,,,,
10,instruction,causal-graph1,252665,male,23,English,United States of America,Right,R565046417430gxrw,,,,,,,,,,,,
10,instruction,causal-graph1,288657,male,23,English,United States of America,Right,R565046417430gxrw,1.0,,,,,,,,,,,
10,instruction,causal-graph1,292329,male,23,English,United States of America,Right,R565046417430gxrw,,,,,,,,,,,,
10,instruction,causal-graph1,574122,male,23,English,United States of America,Right,R565046417430gxrw,1.0,,,,,,,,,,,
10,instruction,causal-graph3,582698,male,23,English,United States of America,Right,R565046417430gxrw,1.0,,,,,,,,,,,
10,instruction,causal-graph1,585258,male,23,English,United States of America,Right,R565046417430gxrw,,,,,,,,,,,,
10,instruction,causal-graph1,590906,male,23,English,United States of America,Right,R565046417430gxrw,,,,,,,,,,,,
10,instruction,causal-graph1,1030258,male,23,English,United States of America,Right,R565046417430gxrw,,,,,,,,,,,,
10,instruction,survey-multi-choice,1281611,male,23,English,United States of America,Right,R565046417430gxrw,,,"{""Q0"":"" To decide what caused the activation of G"",""Q1"":"" A detector becomes active if it receives input from an active detector"",""Q2"":"" G becomes active if all of its inputs are active"",""Q3"":"" Square detectors maintain their activation over time but round detectors do not""}",,,,,,,,,
10,instruction,causal-graph1,1284426,male,23,English,United States of America,Right,R565046417430gxrw,,,,,,,,,,,,
10,instruction,causal-graph1,1286386,male,23,English,United States of America,Right,R565046417430gxrw,,,,,,,,,,,,
10,instruction,causal-graph1,1288427,male,23,English,United States of America,Right,R565046417430gxrw,,,,,,,,,,,,
10,instruction,causal-graph1,1312827,male,23,English,United States of America,Right,R565046417430gxrw,1.0,,,,,,,,,,,
10,instruction,causal-graph1,1314546,male,23,English,United States of America,Right,R565046417430gxrw,,,,,,,,,,,,
10,instruction,causal-graph1,1314978,male,23,English,United States of America,Right,R565046417430gxrw,,,,,,,,,,,,
10,instruction,causal-graph1,1320163,male,23,English,United States of America,Right,R565046417430gxrw,1.0,,,,,,,,,,,
10,instruction,causal-graph1,1320754,male,23,English,United States of America,Right,R565046417430gxrw,,,,,,,,,,,,
10,instruction,causal-graph1,1326251,male,23,English,United States of America,Right,R565046417430gxrw,1.0,,,,,,,,,,,
10,instruction,causal-graph3,1333019,male,23,English,United States of America,Right,R565046417430gxrw,1.0,,,,,,,,,,,
10,instruction,causal-graph1,1333163,male,23,English,United States of America,Right,R565046417430gxrw,,,,,,,,,,,,
10,instruction,causal-graph1,1333595,male,23,English,United States of America,Right,R565046417430gxrw,,,,,,,,,,,,
10,instruction,causal-graph1,1333746,male,23,English,United States of America,Right,R565046417430gxrw,,,,,,,,,,,,
10,instruction,survey-multi-choice,1400547,male,23,English,United States of America,Right,R565046417430gxrw,,,"{""Q0"":"" To decide what caused the activation of G"",""Q1"":"" A detector becomes active if it receives input from an active detector"",""Q2"":"" G becomes active if it absorbs a radioactive particle"",""Q3"":"" Square detectors maintain their activation over time but round detectors do not""}",,,,,,,,,
10,instruction,causal-graph1,1402163,male,23,English,United States of America,Right,R565046417430gxrw,,,,,,,,,,,,
10,instruction,causal-graph1,1403602,male,23,English,United States of America,Right,R565046417430gxrw,,,,,,,,,,,,
10,instruction,causal-graph1,1408650,male,23,English,United States of America,Right,R565046417430gxrw,,,,,,,,,,,,
10,instruction,causal-graph1,1413667,male,23,English,United States of America,Right,R565046417430gxrw,1.0,,,,,,,,,,,
10,instruction,causal-graph1,1414314,male,23,English,United States of America,Right,R565046417430gxrw,,,,,,,,,,,,
10,instruction,causal-graph1,1414483,male,23,English,United States of America,Right,R565046417430gxrw,,,,,,,,,,,,
10,instruction,causal-graph1,1419018,male,23,English,United States of America,Right,R565046417430gxrw,1.0,,,,,,,,,,,
10,instruction,causal-graph1,1419530,male,23,English,United States of America,Right,R565046417430gxrw,,,,,,,,,,,,
10,instruction,causal-graph1,1424779,male,23,English,United States of America,Right,R565046417430gxrw,1.0,,,,,,,,,,,
10,instruction,causal-graph3,1525842,male,23,English,United States of America,Right,R565046417430gxrw,1.0,,,,,,,,,,,
10,instruction,causal-graph1,1526426,male,23,English,United States of America,Right,R565046417430gxrw,,,,,,,,,,,,
10,instruction,causal-graph1,1526602,male,23,English,United States of America,Right,R565046417430gxrw,,,,,,,,,,,,
10,instruction,causal-graph1,1526818,male,23,English,United States of America,Right,R565046417430gxrw,,,,,,,,,,,,
10,instruction,survey-multi-choice,1543971,male,23,English,United States of America,Right,R565046417430gxrw,,,"{""Q0"":"" To decide what caused the activation of G"",""Q1"":"" A detector becomes active if it absorbs a radioactive particle"",""Q2"":"" G becomes active if all of its inputs are active"",""Q3"":"" Square detectors maintain their activation over time but round detectors do not""}",,,,,,,,,
10,instruction,causal-graph1,1545146,male,23,English,United States of America,Right,R565046417430gxrw,,,,,,,,,,,,
10,instruction,causal-graph1,1546354,male,23,English,United States of America,Right,R565046417430gxrw,,,,,,,,,,,,
10,instruction,causal-graph1,1546522,male,23,English,United States of America,Right,R565046417430gxrw,,,,,,,,,,,,
10,instruction,causal-graph1,1553627,male,23,English,United States of America,Right,R565046417430gxrw,1.0,,,,,,,,,,,
10,instruction,causal-graph1,1561043,male,23,English,United States of America,Right,R565046417430gxrw,,,,,,,,,,,,
10,instruction,causal-graph1,1564610,male,23,English,United States of America,Right,R565046417430gxrw,,,,,,,,,,,,
10,instruction,causal-graph1,1571802,male,23,English,United States of America,Right,R565046417430gxrw,1.0,,,,,,,,,,,
10,instruction,causal-graph1,1575634,male,23,English,United States of America,Right,R565046417430gxrw,,,,,,,,,,,,
10,instruction,causal-graph1,1580122,male,23,English,United States of America,Right,R565046417430gxrw,1.0,,,,,,,,,,,
10,instruction,causal-graph3,1588642,male,23,English,United States of America,Right,R565046417430gxrw,1.0,,,,,,,,,,,
10,instruction,causal-graph1,1589322,male,23,English,United States of America,Right,R565046417430gxrw,,,,,,,,,,,,
10,instruction,causal-graph1,1589482,male,23,English,United States of America,Right,R565046417430gxrw,,,,,,,,,,,,
10,instruction,causal-graph1,1592595,male,23,English,United States of America,Right,R565046417430gxrw,,,,,,,,,,,,
10,instruction,survey-multi-choice,1619899,male,23,English,United States of America,Right,R565046417430gxrw,,,"{""Q0"":"" To decide what caused the activation of G"",""Q1"":"" A detector becomes active if it absorbs a radioactive particle"",""Q2"":"" G becomes active if all of its inputs are active"",""Q3"":"" Square detectors maintain their activation over time but round detectors do not""}",,,,,,,,,
10,instruction,causal-graph1,1621498,male,23,English,United States of America,Right,R565046417430gxrw,,,,,,,,,,,,
10,instruction,causal-graph1,1623915,male,23,English,United States of America,Right,R565046417430gxrw,,,,,,,,,,,,
10,instruction,causal-graph1,1627770,male,23,English,United States of America,Right,R565046417430gxrw,,,,,,,,,,,,
10,instruction,causal-graph1,1636706,male,23,English,United States of America,Right,R565046417430gxrw,1.0,,,,,,,,,,,
10,instruction,causal-graph1,1642770,male,23,English,United States of America,Right,R565046417430gxrw,,,,,,,,,,,,
10,instruction,causal-graph1,1648699,male,23,English,United States of America,Right,R565046417430gxrw,,,,,,,,,,,,
10,instruction,causal-graph1,1655643,male,23,English,United States of America,Right,R565046417430gxrw,1.0,,,,,,,,,,,
10,instruction,causal-graph1,1657275,male,23,English,United States of America,Right,R565046417430gxrw,,,,,,,,,,,,
10,instruction,causal-graph1,1701371,male,23,English,United States of America,Right,R565046417430gxrw,1.0,,,,,,,,,,,
10,instruction,causal-graph3,1733890,male,23,English,United States of America,Right,R565046417430gxrw,1.0,,,,,,,,,,,
10,instruction,causal-graph1,1736410,male,23,English,United States of America,Right,R565046417430gxrw,,,,,,,,,,,,
10,instruction,causal-graph1,1767978,male,23,English,United States of America,Right,R565046417430gxrw,,,,,,,,,,,,
10,instruction,causal-graph1,1773819,male,23,English,United States of America,Right,R565046417430gxrw,,,,,,,,,,,,
10,instruction,survey-multi-choice,1813299,male,23,English,United States of America,Right,R565046417430gxrw,,,"{""Q0"":"" To decide what caused the activation of G"",""Q1"":"" A detector becomes active if it absorbs a radioactive particle or receives input from an active detector"",""Q2"":"" G becomes active if all of its inputs are active"",""Q3"":"" Square detectors maintain their activation over time but round detectors do not""}",,,,,,,,,
10,instruction,causal-graph1,1814691,male,23,English,United States of America,Right,R565046417430gxrw,,,,,,,,,,,,
10,RAAC_RB,causal-graph3,1865723,male,23,English,United States of America,Right,R565046417430gxrw,1.0,6782.374999951571,,AND_Gate,Rolled,Bottom,Circles,Event,,A,A,nodeB7
10,UAS_RT,causal-graph1,1878307,male,23,English,United States of America,Right,R565046417430gxrw,1.0,10267.94000004884,,AND_Gate,Unrolled,Top,Squares,State,A,,B,nodeB7
10,UAAS_RT,causal-graph1,1894902,male,23,English,United States of America,Right,R565046417430gxrw,1.0,14516.095000028145,,AND_Gate,Unrolled,Top,Squares,Event,,A,A,nodeB7
10,UBS_RT,causal-graph1,1906563,male,23,English,United States of America,Right,R565046417430gxrw,1.0,9620.620000001507,,AND_Gate,Unrolled,Top,Squares,State,B,,A,nodeA20
10,RBC_RT,causal-graph3,1921548,male,23,English,United States of America,Right,R565046417430gxrw,1.0,3985.424999962561,,AND_Gate,Rolled,Top,Circles,State,B,,A,nodeA4
10,chainC_RT,causal-graph1,1931795,male,23,English,United States of America,Right,R565046417430gxrw,1.0,8820.45499997912,,ChainC,,Top,,,,,,nodeA30
10,UBAS_RT,causal-graph1,1949883,male,23,English,United States of America,Right,R565046417430gxrw,1.0,9829.129999969156,,AND_Gate,Unrolled,Top,Squares,Event,,B,A,nodeA20
10,chainS_R,causal-graph1,1960467,male,23,English,United States of America,Right,R565046417430gxrw,1.0,9357.294999994338,,ChainS,,,,,,,,nodeB9
10,UBC_RB,causal-graph1,1971443,male,23,English,United States of America,Right,R565046417430gxrw,1.0,9357.019999995828,,AND_Gate,Unrolled,Bottom,Circles,State,B,,A,nodeA20
10,RAC_RB,causal-graph3,1988507,male,23,English,United States of America,Right,R565046417430gxrw,1.0,6922.625000006518,,AND_Gate,Rolled,Bottom,Circles,State,A,,A,nodeA20
10,UABS_RT,causal-graph1,2003332,male,23,English,United States of America,Right,R565046417430gxrw,1.0,11910.659999994097,,AND_Gate,Unrolled,Top,Squares,Event,,A,B,nodeB7
10,UBAC_RB,causal-graph1,2018411,male,23,English,United States of America,Right,R565046417430gxrw,1.0,10084.81499995105,,AND_Gate,Unrolled,Bottom,Circles,Event,,B,A,nodeA19
10,UBBS_RB,causal-graph1,2030771,male,23,English,United States of America,Right,R565046417430gxrw,1.0,10813.054999976883,,AND_Gate,Unrolled,Bottom,Squares,Event,,B,B,nodeA37
10,RBAC_RB,causal-graph3,2042923,male,23,English,United States of America,Right,R565046417430gxrw,1.0,1366.4349999744445,,AND_Gate,Rolled,Bottom,Circles,Event,,B,A,nodeA20
10,UAAC_RB,causal-graph1,2056387,male,23,English,United States of America,Right,R565046417430gxrw,1.0,12500.4150000168,,AND_Gate,Unrolled,Bottom,Circles,Event,,A,A,nodeA41
10,instruction,causal-graph1,2057819,male,23,English,United States of America,Right,R565046417430gxrw,,,,,,,,,,,,
10,comment,survey-text,2059572,male,23,English,United States of America,Right,R565046417430gxrw,,1746.404999983497,"{""Q0"":""""}",,,,,,,,,
11,instruction,causal-graph1,10415,male,43,English,United States of America,Right,R562789207700gxrw,,,,,,,,,,,,
11,instruction,causal-graph1,21239,male,43,English,United States of America,Right,R562789207700gxrw,,,,,,,,,,,,
11,instruction,causal-graph1,46103,male,43,English,United States of America,Right,R562789207700gxrw,2.0,,,,,,,,,,,
11,instruction,causal-graph1,59454,male,43,English,United States of America,Right,R562789207700gxrw,,,,,,,,,,,,
11,instruction,causal-graph1,70674,male,43,English,United States of America,Right,R562789207700gxrw,,,,,,,,,,,,
11,instruction,causal-graph1,91627,male,43,English,United States of America,Right,R562789207700gxrw,2.0,,,,,,,,,,,
11,instruction,causal-graph1,99270,male,43,English,United States of America,Right,R562789207700gxrw,,,,,,,,,,,,
11,instruction,causal-graph1,127330,male,43,English,United States of America,Right,R562789207700gxrw,2.0,,,,,,,,,,,
11,instruction,causal-graph3,148723,male,43,English,United States of America,Right,R562789207700gxrw,1.0,,,,,,,,,,,
11,instruction,causal-graph1,169231,male,43,English,United States of America,Right,R562789207700gxrw,,,,,,,,,,,,
11,instruction,causal-graph1,176901,male,43,English,United States of America,Right,R562789207700gxrw,,,,,,,,,,,,
11,instruction,causal-graph1,190535,male,43,English,United States of America,Right,R562789207700gxrw,,,,,,,,,,,,
11,instruction,survey-multi-choice,271758,male,43,English,United States of America,Right,R562789207700gxrw,,,"{""Q0"":"" To decide what caused the activation of G"",""Q1"":"" A detector becomes active if it absorbs a radioactive particle"",""Q2"":"" G becomes active if at least one of its inputs is active"",""Q3"":"" Square detectors maintain their activation over time but round detectors do not""}",,,,,,,,,
11,instruction,causal-graph1,275419,male,43,English,United States of America,Right,R562789207700gxrw,,,,,,,,,,,,
11,instruction,causal-graph1,278066,male,43,English,United States of America,Right,R562789207700gxrw,,,,,,,,,,,,
11,instruction,causal-graph1,290932,male,43,English,United States of America,Right,R562789207700gxrw,,,,,,,,,,,,
11,instruction,causal-graph1,305838,male,43,English,United States of America,Right,R562789207700gxrw,1.0,,,,,,,,,,,
11,instruction,causal-graph1,315290,male,43,English,United States of America,Right,R562789207700gxrw,,,,,,,,,,,,
11,instruction,causal-graph1,321240,male,43,English,United States of America,Right,R562789207700gxrw,,,,,,,,,,,,
11,instruction,causal-graph1,335577,male,43,English,United States of America,Right,R562789207700gxrw,2.0,,,,,,,,,,,
