subject_id,rt,stimulus,trial_type,time_elapsed,gender,age,language,country,sampling,turkcode,nb_of_run,responses,stim_type,length,state_OR_event,branch_first,time_interval,node_selected
1,,instruction,image-button-response,33515,female,30,English,United States of America,Left,R564336057500gxrw,,,,,,,,
1,,instruction,causal-graph2,39587,female,30,English,United States of America,Left,R564336057500gxrw,,,,,,,,
1,,instruction,causal-graph2,53665,female,30,English,United States of America,Left,R564336057500gxrw,1.0,,,,,,,
1,,instruction,causal-graph2,56916,female,30,English,United States of America,Left,R564336057500gxrw,,,,,,,,
1,,instruction,causal-graph2,88944,female,30,English,United States of America,Left,R564336057500gxrw,1.0,,,,,,,
1,,instruction,image-button-response,92180,female,30,English,United States of America,Left,R564336057500gxrw,,,,,,,,
1,,instruction,causal-familiarisation,112919,female,30,English,United States of America,Left,R564336057500gxrw,,,,,,,,
1,,instruction,survey-multi-choice,144445,female,30,English,United States of America,Left,R564336057500gxrw,,"{""Q0"":"" To find out if the Gauge of Critical Moment (GCM) is activated or not"",""Q1"":"" A GCM becomes active if at least one of its inputs is active"",""Q2"":"" You should assign a number to every detector in every network""}",,,,,,
1,,instruction,image-button-response,148745,female,30,English,United States of America,Left,R564336057500gxrw,,,,,,,,
1,,instruction,image-button-response,153464,female,30,English,United States of America,Left,R564336057500gxrw,,,,,,,,
1,,instruction,causal-graph2,163359,female,30,English,United States of America,Left,R564336057500gxrw,,,,,,,,
1,,instruction,causal-graph2,187562,female,30,English,United States of America,Left,R564336057500gxrw,1.0,,,,,,,
1,,instruction,causal-graph2,193600,female,30,English,United States of America,Left,R564336057500gxrw,,,,,,,,
1,,instruction,causal-graph2,207171,female,30,English,United States of America,Left,R564336057500gxrw,1.0,,,,,,,
1,,instruction,image-button-response,215612,female,30,English,United States of America,Left,R564336057500gxrw,,,,,,,,
1,,instruction,causal-familiarisation,227471,female,30,English,United States of America,Left,R564336057500gxrw,,,,,,,,
1,,instruction,survey-multi-choice,261892,female,30,English,United States of America,Left,R564336057500gxrw,,"{""Q0"":"" To find out if the Gauge of Critical Moment (GCM) is activated or not"",""Q1"":"" A GCM becomes active if at least one of its inputs is active"",""Q2"":"" You should click on and rank all detectors that caused the activation of the GCM""}",,,,,,
1,,instruction,image-button-response,265346,female,30,English,United States of America,Left,R564336057500gxrw,,,,,,,,
1,,instruction,image-button-response,268492,female,30,English,United States of America,Left,R564336057500gxrw,,,,,,,,
1,,instruction,causal-graph2,273510,female,30,English,United States of America,Left,R564336057500gxrw,,,,,,,,
1,,instruction,causal-graph2,299880,female,30,English,United States of America,Left,R564336057500gxrw,1.0,,,,,,,
1,,instruction,causal-graph2,304051,female,30,English,United States of America,Left,R564336057500gxrw,,,,,,,,
1,,instruction,causal-graph2,335337,female,30,English,United States of America,Left,R564336057500gxrw,1.0,,,,,,,
1,,instruction,image-button-response,339366,female,30,English,United States of America,Left,R564336057500gxrw,,,,,,,,
1,,instruction,causal-familiarisation,351377,female,30,English,United States of America,Left,R564336057500gxrw,,,,,,,,
1,,instruction,survey-multi-choice,369338,female,30,English,United States of America,Left,R564336057500gxrw,,"{""Q0"":"" To find out if the Gauge of Critical Moment (GCM) is activated or not"",""Q1"":"" A GCM becomes active if all of its inputs are active"",""Q2"":"" You should click on and rank all detectors that caused the activation of the GCM""}",,,,,,
1,,instruction,image-button-response,460140,female,30,English,United States of America,Left,R564336057500gxrw,,,,,,,,
1,,instruction,image-button-response,463280,female,30,English,United States of America,Left,R564336057500gxrw,,,,,,,,
1,,instruction,causal-graph2,465015,female,30,English,United States of America,Left,R564336057500gxrw,,,,,,,,
1,,instruction,causal-graph2,485290,female,30,English,United States of America,Left,R564336057500gxrw,1.0,,,,,,,
1,,instruction,causal-graph2,494279,female,30,English,United States of America,Left,R564336057500gxrw,,,,,,,,
1,,instruction,causal-graph2,518580,female,30,English,United States of America,Left,R564336057500gxrw,1.0,,,,,,,
1,,instruction,image-button-response,524755,female,30,English,United States of America,Left,R564336057500gxrw,,,,,,,,
1,,instruction,causal-familiarisation,538330,female,30,English,United States of America,Left,R564336057500gxrw,,,,,,,,
1,,instruction,survey-multi-choice,732032,female,30,English,United States of America,Left,R564336057500gxrw,,"{""Q0"":"" To decide what caused the activation of the GCM"",""Q1"":"" A GCM becomes active if all of its inputs are active"",""Q2"":"" You should click on and rank all detectors that caused the activation of the GCM""}",,,,,,
1,,instruction,image-button-response,760871,female,30,English,United States of America,Left,R564336057500gxrw,,,,,,,,
1,14003.514999989422,branch_LTSE3,causal-graph2,886561,female,30,English,United States of America,Left,R564336057500gxrw,4.0,,AND_Gate,Short,Event,Top,Long,"[{""selected"":""node6"",""rank"":1}]"
1,10760.604999959467,branch_LTMS,causal-graph2,900238,female,30,English,United States of America,Left,R564336057500gxrw,1.0,,AND_Gate,Medium,State,Top,,"[{""selected"":""node4"",""rank"":2}]"
1,10380.48499985598,chain_LS,causal-graph2,914137,female,30,English,United States of America,Left,R564336057500gxrw,1.0,,Chain,Short,,,,"[{""selected"":""node6"",""rank"":3}]"
1,12376.005000201985,branch_LBSE1,causal-graph2,929897,female,30,English,United States of America,Left,R564336057500gxrw,1.0,,AND_Gate,Short,Event,Bottom,Short,"[{""selected"":""node6"",""rank"":1},{""selected"":""node13"",""rank"":2}]"
1,18872.179999947548,branch_LBME3,causal-graph2,952376,female,30,English,United States of America,Left,R564336057500gxrw,1.0,,AND_Gate,Medium,Event,Bottom,Long,"[{""selected"":""node4"",""rank"":2},{""selected"":""node11"",""rank"":1}]"
1,15256.414999952542,branch_LTME2,causal-graph2,970834,female,30,English,United States of America,Left,R564336057500gxrw,1.0,,AND_Gate,Medium,Event,Top,Medium,"[{""selected"":""node4"",""rank"":3},{""selected"":""node11"",""rank"":1}]"
1,14469.655000139028,branch_LBLS,causal-graph2,988443,female,30,English,United States of America,Left,R564336057500gxrw,1.0,,AND_Gate,Long,State,Bottom,,"[{""selected"":""node1"",""rank"":2},{""selected"":""node2"",""rank"":1},{""selected"":""node9"",""rank"":1}]"
1,23613.2800001651,branch_LBLE3,causal-graph2,1024317,female,30,English,United States of America,Left,R564336057500gxrw,1.0,,AND_Gate,Long,Event,Bottom,Long,"[{""selected"":""node1"",""rank"":1},{""selected"":""node2"",""rank"":2},{""selected"":""node8"",""rank"":1},{""selected"":""node9"",""rank"":2}]"
1,23825.994999846444,branch_LBLE1,causal-graph2,1052500,female,30,English,United States of America,Left,R564336057500gxrw,1.0,,AND_Gate,Long,Event,Bottom,Short,"[{""selected"":""node2"",""rank"":1},{""selected"":""node9"",""rank"":1}]"
1,12000.310000032188,chain_LM,causal-graph2,1067948,female,30,English,United States of America,Left,R564336057500gxrw,1.0,,Chain,Medium,,,,"[{""selected"":""node3"",""rank"":2},{""selected"":""node4"",""rank"":1}]"
1,57229.85999984668,chain_LL,causal-graph2,1128666,female,30,English,United States of America,Left,R564336057500gxrw,1.0,,Chain,Long,,,,"[{""selected"":""node2"",""rank"":1}]"
1,15430.505000054836,branch_LTSE2,causal-graph2,1149607,female,30,English,United States of America,Left,R564336057500gxrw,1.0,,AND_Gate,Short,Event,Top,Medium,"[{""selected"":""node4"",""rank"":2},{""selected"":""node6"",""rank"":1},{""selected"":""node10"",""rank"":3}]"
1,15899.93999991566,branch_LTLE2,causal-graph2,1168411,female,30,English,United States of America,Left,R564336057500gxrw,1.0,,AND_Gate,Long,Event,Top,Medium,"[{""selected"":""node2"",""rank"":1},{""selected"":""node8"",""rank"":2}]"
1,13663.235000101851,branch_LTME1,causal-graph2,1184950,female,30,English,United States of America,Left,R564336057500gxrw,1.0,,AND_Gate,Medium,Event,Top,Short,"[{""selected"":""node2"",""rank"":2},{""selected"":""node10"",""rank"":1}]"
1,16287.409999873491,branch_LBSS,causal-graph2,1204264,female,30,English,United States of America,Left,R564336057500gxrw,1.0,,AND_Gate,Short,State,Bottom,,"[{""selected"":""node2"",""rank"":2},{""selected"":""node12"",""rank"":1}]"
1,,instruction,image-button-response,1209991,female,30,English,United States of America,Left,R564336057500gxrw,,,,,,,,
1,12107.125000096858,comment,survey-text,1222154,female,30,English,United States of America,Left,R564336057500gxrw,,"{""Q0"":""Good and Interesting.""}",,,,,,
2,,instruction,image-button-response,25820,female,38,English,United States of America,Right,R563269237570gxrw,,,,,,,,
2,,instruction,causal-graph2,30237,female,38,English,United States of America,Right,R563269237570gxrw,,,,,,,,
2,,instruction,causal-graph2,52266,female,38,English,United States of America,Right,R563269237570gxrw,1.0,,,,,,,
2,,instruction,causal-graph2,64689,female,38,English,United States of America,Right,R563269237570gxrw,,,,,,,,
2,,instruction,causal-graph2,90535,female,38,English,United States of America,Right,R563269237570gxrw,1.0,,,,,,,
2,,instruction,image-button-response,109962,female,38,English,United States of America,Right,R563269237570gxrw,,,,,,,,
2,,instruction,causal-familiarisation,135328,female,38,English,United States of America,Right,R563269237570gxrw,,,,,,,,
2,,instruction,survey-multi-choice,159670,female,38,English,United States of America,Right,R563269237570gxrw,,"{""Q0"":"" To decide what caused the activation of the GCM"",""Q1"":"" A GCM becomes active if all of its inputs are active"",""Q2"":"" You should click on and rank all detectors that caused the activation of the GCM""}",,,,,,
2,,instruction,image-button-response,161654,female,38,English,United States of America,Right,R563269237570gxrw,,,,,,,,
2,14063.0,branch_RTSE3,causal-graph2,204606,female,38,English,United States of America,Right,R563269237570gxrw,2.0,,AND_Gate,Short,Event,Top,Long,"[{""selected"":""node7"",""rank"":1},{""selected"":""node14"",""rank"":1}]"
2,10560.0,chain_RS,causal-graph2,216443,female,38,English,United States of America,Right,R563269237570gxrw,1.0,,Chain,Short,,,,"[{""selected"":""node7"",""rank"":1}]"
2,22290.0,branch_RBME1,causal-graph2,240392,female,38,English,United States of America,Right,R563269237570gxrw,1.0,,AND_Gate,Medium,Event,Bottom,Short,"[{""selected"":""node5"",""rank"":3},{""selected"":""node6"",""rank"":2},{""selected"":""node7"",""rank"":1},{""selected"":""node12"",""rank"":3},{""selected"":""node13"",""rank"":2},{""selected"":""node14"",""rank"":1}]"
2,13751.0,chain_RM,causal-graph2,255490,female,38,English,United States of America,Right,R563269237570gxrw,1.0,,Chain,Medium,,,,"[{""selected"":""node5"",""rank"":2},{""selected"":""node6"",""rank"":2},{""selected"":""node7"",""rank"":1}]"
2,13725.0,chain_RL,causal-graph2,270443,female,38,English,United States of America,Right,R563269237570gxrw,1.0,,Chain,Long,,,,"[{""selected"":""node3"",""rank"":2},{""selected"":""node4"",""rank"":2},{""selected"":""node5"",""rank"":2},{""selected"":""node6"",""rank"":2},{""selected"":""node7"",""rank"":1}]"
2,9619.0,branch_RTSE1,causal-graph2,281375,female,38,English,United States of America,Right,R563269237570gxrw,1.0,,AND_Gate,Short,Event,Top,Short,"[{""selected"":""node7"",""rank"":1},{""selected"":""node14"",""rank"":1}]"
2,24810.0,branch_RTME3,causal-graph2,307415,female,38,English,United States of America,Right,R563269237570gxrw,1.0,,AND_Gate,Medium,Event,Top,Long,"[{""selected"":""node5"",""rank"":2},{""selected"":""node6"",""rank"":2},{""selected"":""node7"",""rank"":1},{""selected"":""node12"",""rank"":2},{""selected"":""node13"",""rank"":2},{""selected"":""node14"",""rank"":1}]"
2,22024.0,branch_RBLE2,causal-graph2,330819,female,38,English,United States of America,Right,R563269237570gxrw,1.0,,AND_Gate,Long,Event,Bottom,Medium,"[{""selected"":""node3"",""rank"":2},{""selected"":""node4"",""rank"":2},{""selected"":""node5"",""rank"":2},{""selected"":""node6"",""rank"":2},{""selected"":""node7"",""rank"":1},{""selected"":""node10"",""rank"":2},{""selected"":""node11"",""rank"":2},{""selected"":""node12"",""rank"":2},{""selected"":""node13"",""rank"":2},{""selected"":""node14"",""rank"":1}]"
2,12060.0,branch_RBSE2,causal-graph2,344534,female,38,English,United States of America,Right,R563269237570gxrw,1.0,,AND_Gate,Short,Event,Bottom,Medium,"[{""selected"":""node7"",""rank"":1},{""selected"":""node14"",""rank"":1}]"
2,16895.0,branch_RBME2,causal-graph2,362529,female,38,English,United States of America,Right,R563269237570gxrw,1.0,,AND_Gate,Medium,Event,Bottom,Medium,"[{""selected"":""node5"",""rank"":2},{""selected"":""node6"",""rank"":2},{""selected"":""node7"",""rank"":1},{""selected"":""node12"",""rank"":2},{""selected"":""node13"",""rank"":2},{""selected"":""node14"",""rank"":1}]"
2,12660.0,branch_RBMS,causal-graph2,377789,female,38,English,United States of America,Right,R563269237570gxrw,1.0,,AND_Gate,Medium,State,Bottom,,"[{""selected"":""node5"",""rank"":2},{""selected"":""node6"",""rank"":2},{""selected"":""node7"",""rank"":1},{""selected"":""node12"",""rank"":2},{""selected"":""node13"",""rank"":2},{""selected"":""node14"",""rank"":1}]"
2,25184.0,branch_RBLE1,causal-graph2,404085,female,38,English,United States of America,Right,R563269237570gxrw,1.0,,AND_Gate,Long,Event,Bottom,Short,"[{""selected"":""node3"",""rank"":2},{""selected"":""node4"",""rank"":2},{""selected"":""node5"",""rank"":2},{""selected"":""node6"",""rank"":2},{""selected"":""node7"",""rank"":1},{""selected"":""node10"",""rank"":2},{""selected"":""node11"",""rank"":2},{""selected"":""node12"",""rank"":2},{""selected"":""node13"",""rank"":2},{""selected"":""node14"",""rank"":1}]"
2,7881.0,branch_RTSS,causal-graph2,413831,female,38,English,United States of America,Right,R563269237570gxrw,1.0,,AND_Gate,Short,State,Top,,"[{""selected"":""node7"",""rank"":1},{""selected"":""node14"",""rank"":1}]"
2,15508.0,branch_RBLS,causal-graph2,430599,female,38,English,United States of America,Right,R563269237570gxrw,1.0,,AND_Gate,Long,State,Bottom,,"[{""selected"":""node3"",""rank"":2},{""selected"":""node4"",""rank"":2},{""selected"":""node5"",""rank"":2},{""selected"":""node6"",""rank"":2},{""selected"":""node7"",""rank"":1},{""selected"":""node10"",""rank"":2},{""selected"":""node11"",""rank"":2},{""selected"":""node12"",""rank"":2},{""selected"":""node13"",""rank"":2},{""selected"":""node14"",""rank"":1}]"
2,19399.0,branch_RTLE3,causal-graph2,452424,female,38,English,United States of America,Right,R563269237570gxrw,1.0,,AND_Gate,Long,Event,Top,Long,"[{""selected"":""node3"",""rank"":1},{""selected"":""node7"",""rank"":2},{""selected"":""node10"",""rank"":1},{""selected"":""node14"",""rank"":2}]"
2,,instruction,image-button-response,454083,female,38,English,United States of America,Right,R563269237570gxrw,,,,,,,,
2,2919.0,comment,survey-text,457016,female,38,English,United States of America,Right,R563269237570gxrw,,"{""Q0"":""""}",,,,,,
3,,instruction,image-button-response,1047277,male,29,english,United States of America,Left,R567111707800gxrw,,,,,,,,
3,,instruction,causal-graph2,1054939,male,29,english,United States of America,Left,R567111707800gxrw,,,,,,,,
3,,instruction,causal-graph2,1098548,male,29,english,United States of America,Left,R567111707800gxrw,2.0,,,,,,,
3,,instruction,causal-graph2,1106106,male,29,english,United States of America,Left,R567111707800gxrw,,,,,,,,
3,,instruction,causal-graph2,1141588,male,29,english,United States of America,Left,R567111707800gxrw,1.0,,,,,,,
3,,instruction,image-button-response,1148714,male,29,english,United States of America,Left,R567111707800gxrw,,,,,,,,
3,,instruction,causal-familiarisation,1190180,male,29,english,United States of America,Left,R567111707800gxrw,,,,,,,,
3,,instruction,survey-multi-choice,1208117,male,29,english,United States of America,Left,R567111707800gxrw,,"{""Q0"":"" To decide what caused the activation of the GCM"",""Q1"":"" A GCM becomes active if all of its inputs are active"",""Q2"":"" You should click on and rank all detectors that caused the activation of the GCM""}",,,,,,
3,,instruction,image-button-response,1215860,male,29,english,United States of America,Left,R567111707800gxrw,,,,,,,,
3,60936.81500013918,branch_LBLS,causal-graph2,1302293,male,29,english,United States of America,Left,R567111707800gxrw,2.0,,AND_Gate,Long,State,Bottom,,"[{""selected"":""node4"",""rank"":1},{""selected"":""node10"",""rank"":1}]"
3,10445.22500014864,chain_LS,causal-graph2,1320565,male,29,english,United States of America,Left,R567111707800gxrw,1.0,,Chain,Short,,,,"[{""selected"":""node6"",""rank"":1}]"
3,11872.05499992706,branch_LTME2,causal-graph2,1335709,male,29,english,United States of America,Left,R567111707800gxrw,1.0,,AND_Gate,Medium,Event,Top,Medium,"[{""selected"":""node4"",""rank"":1}]"
3,10388.2750000339,chain_LL,causal-graph2,1350406,male,29,english,United States of America,Left,R567111707800gxrw,1.0,,Chain,Long,,,,"[{""selected"":""node3"",""rank"":1}]"
3,15047.325000166891,branch_LTLE2,causal-graph2,1369654,male,29,english,United States of America,Left,R567111707800gxrw,1.0,,AND_Gate,Long,Event,Top,Medium,"[{""selected"":""node3"",""rank"":1}]"
3,18316.464999923483,branch_LBME1,causal-graph2,1390967,male,29,english,United States of America,Left,R567111707800gxrw,1.0,,AND_Gate,Medium,Event,Bottom,Short,"[{""selected"":""node5"",""rank"":1},{""selected"":""node12"",""rank"":8}]"
3,21980.740000028163,branch_LBME3,causal-graph2,1418359,male,29,english,United States of America,Left,R567111707800gxrw,1.0,,AND_Gate,Medium,Event,Bottom,Long,"[{""selected"":""node6"",""rank"":3},{""selected"":""node12"",""rank"":1}]"
3,9100.680000148715,branch_LBSS,causal-graph2,1432959,male,29,english,United States of America,Left,R567111707800gxrw,1.0,,AND_Gate,Short,State,Bottom,,"[{""selected"":""node14"",""rank"":1}]"
3,16517.314999829978,branch_LBLE1,causal-graph2,1454487,male,29,english,United States of America,Left,R567111707800gxrw,1.0,,AND_Gate,Long,Event,Bottom,Short,"[{""selected"":""node4"",""rank"":2},{""selected"":""node10"",""rank"":1},{""selected"":""node12"",""rank"":2}]"
3,10178.994999965651,chain_LM,causal-graph2,1467727,male,29,english,United States of America,Left,R567111707800gxrw,1.0,,Chain,Medium,,,,"[{""selected"":""node5"",""rank"":1}]"
3,18513.730000006035,branch_LBSE2,causal-graph2,1499969,male,29,english,United States of America,Left,R567111707800gxrw,1.0,,AND_Gate,Short,Event,Bottom,Medium,"[{""selected"":""node14"",""rank"":1}]"
3,19393.320000031963,branch_LBLE3,causal-graph2,1522128,male,29,english,United States of America,Left,R567111707800gxrw,1.0,,AND_Gate,Long,Event,Bottom,Long,"[{""selected"":""node10"",""rank"":1}]"
3,18513.04999995045,branch_LTSE3,causal-graph2,1555001,male,29,english,United States of America,Left,R567111707800gxrw,1.0,,AND_Gate,Short,Event,Top,Long,"[{""selected"":""node7"",""rank"":1},{""selected"":""node14"",""rank"":2},{""selected"":""node15"",""rank"":3}]"
3,20278.13500002958,branch_LTMS,causal-graph2,1582914,male,29,english,United States of America,Left,R567111707800gxrw,1.0,,AND_Gate,Medium,State,Top,,"[{""selected"":""node5"",""rank"":2},{""selected"":""node6"",""rank"":3},{""selected"":""node11"",""rank"":1},{""selected"":""node12"",""rank"":4}]"
3,12158.64499984309,branch_LTSE1,causal-graph2,1603682,male,29,english,United States of America,Left,R567111707800gxrw,1.0,,AND_Gate,Short,Event,Top,Short,"[{""selected"":""node7"",""rank"":1},{""selected"":""node14"",""rank"":2},{""selected"":""node15"",""rank"":3}]"
3,,instruction,image-button-response,1606266,male,29,english,United States of America,Left,R567111707800gxrw,,,,,,,,
3,2816.799999913201,comment,survey-text,1609114,male,29,english,United States of America,Left,R567111707800gxrw,,"{""Q0"":""""}",,,,,,
4,,instruction,image-button-response,43047,female,62,English,United States of America,Left,R569528587520gxrw,,,,,,,,
4,,instruction,causal-graph2,51028,female,62,English,United States of America,Left,R569528587520gxrw,,,,,,,,
4,,instruction,causal-graph2,72660,female,62,English,United States of America,Left,R569528587520gxrw,1.0,,,,,,,
4,,instruction,causal-graph2,75195,female,62,English,United States of America,Left,R569528587520gxrw,,,,,,,,
4,,instruction,causal-graph2,88369,female,62,English,United States of America,Left,R569528587520gxrw,1.0,,,,,,,
4,,instruction,image-button-response,124803,female,62,English,United States of America,Left,R569528587520gxrw,,,,,,,,
4,,instruction,causal-familiarisation,178340,female,62,English,United States of America,Left,R569528587520gxrw,,,,,,,,
4,,instruction,survey-multi-choice,210894,female,62,English,United States of America,Left,R569528587520gxrw,,"{""Q0"":"" To decide what caused the activation of the GCM"",""Q1"":"" A GCM becomes active if at least one of its inputs is active"",""Q2"":"" You should click on and rank all detectors that caused the activation of the GCM""}",,,,,,
4,,instruction,image-button-response,217543,female,62,English,United States of America,Left,R569528587520gxrw,,,,,,,,
4,,instruction,image-button-response,221179,female,62,English,United States of America,Left,R569528587520gxrw,,,,,,,,
4,,instruction,causal-graph2,225978,female,62,English,United States of America,Left,R569528587520gxrw,,,,,,,,
4,,instruction,causal-graph2,245484,female,62,English,United States of America,Left,R569528587520gxrw,1.0,,,,,,,
4,,instruction,causal-graph2,255611,female,62,English,United States of America,Left,R569528587520gxrw,,,,,,,,
4,,instruction,causal-graph2,305203,female,62,English,United States of America,Left,R569528587520gxrw,1.0,,,,,,,
4,,instruction,image-button-response,309842,female,62,English,United States of America,Left,R569528587520gxrw,,,,,,,,
4,,instruction,causal-familiarisation,322458,female,62,English,United States of America,Left,R569528587520gxrw,,,,,,,,
4,,instruction,survey-multi-choice,380977,female,62,English,United States of America,Left,R569528587520gxrw,,"{""Q0"":"" To decide what caused the activation of the GCM"",""Q1"":"" A GCM becomes active if all of its inputs are active"",""Q2"":"" You should assign a number to every detector in every network""}",,,,,,
4,,instruction,image-button-response,385043,female,62,English,United States of America,Left,R569528587520gxrw,,,,,,,,
4,,instruction,image-button-response,387753,female,62,English,United States of America,Left,R569528587520gxrw,,,,,,,,
4,,instruction,causal-graph2,396681,female,62,English,United States of America,Left,R569528587520gxrw,,,,,,,,
4,,instruction,causal-graph2,445106,female,62,English,United States of America,Left,R569528587520gxrw,1.0,,,,,,,
4,,instruction,causal-graph2,464015,female,62,English,United States of America,Left,R569528587520gxrw,,,,,,,,
4,,instruction,causal-graph2,479873,female,62,English,United States of America,Left,R569528587520gxrw,1.0,,,,,,,
4,,instruction,image-button-response,492905,female,62,English,United States of America,Left,R569528587520gxrw,,,,,,,,
4,,instruction,causal-familiarisation,507668,female,62,English,United States of America,Left,R569528587520gxrw,,,,,,,,
4,,instruction,survey-multi-choice,540555,female,62,English,United States of America,Left,R569528587520gxrw,,"{""Q0"":"" To decide what caused the activation of the GCM"",""Q1"":"" A GCM becomes active if all of its inputs are active"",""Q2"":"" You should click on and rank all detectors that caused the activation of the GCM""}",,,,,,
4,,instruction,image-button-response,546731,female,62,English,United States of America,Left,R569528587520gxrw,,,,,,,,
4,57953.310000000754,branch_LTLE1,causal-graph2,609757,female,62,English,United States of America,Left,R569528587520gxrw,1.0,,AND_Gate,Long,Event,Top,Short,"[{""selected"":""node4"",""rank"":1},{""selected"":""node5"",""rank"":2},{""selected"":""node6"",""rank"":3},{""selected"":""node7"",""rank"":4}]"
4,28489.499999999647,branch_LTME2,causal-graph2,640404,female,62,English,United States of America,Left,R569528587520gxrw,1.0,,AND_Gate,Medium,Event,Top,Medium,"[{""selected"":""node5"",""rank"":1},{""selected"":""node6"",""rank"":2},{""selected"":""node7"",""rank"":3},{""selected"":""node12"",""rank"":4},{""selected"":""node13"",""rank"":5},{""selected"":""node14"",""rank"":6},{""selected"":""node15"",""rank"":7}]"
4,16723.739999997546,branch_LBSE3,causal-graph2,659591,female,62,English,United States of America,Left,R569528587520gxrw,1.0,,AND_Gate,Short,Event,Bottom,Long,"[{""selected"":""node7"",""rank"":2},{""selected"":""node14"",""rank"":1},{""selected"":""node15"",""rank"":3}]"
4,24943.310000002384,branch_LTME1,causal-graph2,688189,female,62,English,United States of America,Left,R569528587520gxrw,1.0,,AND_Gate,Medium,Event,Top,Short,"[{""selected"":""node5"",""rank"":1},{""selected"":""node6"",""rank"":2},{""selected"":""node7"",""rank"":3},{""selected"":""node12"",""rank"":4},{""selected"":""node13"",""rank"":5},{""selected"":""node14"",""rank"":6},{""selected"":""node15"",""rank"":7}]"
4,12058.37500000058,branch_LTSE1,causal-graph2,703199,female,62,English,United States of America,Left,R569528587520gxrw,1.0,,AND_Gate,Short,Event,Top,Short,"[{""selected"":""node7"",""rank"":1},{""selected"":""node14"",""rank"":2},{""selected"":""node15"",""rank"":3}]"
4,18228.579999999027,chain_LL,causal-graph2,724008,female,62,English,United States of America,Left,R569528587520gxrw,1.0,,Chain,Long,,,,"[{""selected"":""node3"",""rank"":1},{""selected"":""node4"",""rank"":2},{""selected"":""node5"",""rank"":3},{""selected"":""node6"",""rank"":4},{""selected"":""node7"",""rank"":5},{""selected"":""node8"",""rank"":6}]"
4,14956.360000000102,branch_LBMS,causal-graph2,744986,female,62,English,United States of America,Left,R569528587520gxrw,1.0,,AND_Gate,Medium,State,Bottom,,"[{""selected"":""node5"",""rank"":1},{""selected"":""node6"",""rank"":2},{""selected"":""node7"",""rank"":3},{""selected"":""node15"",""rank"":4}]"
4,14950.904999997814,branch_LBSE2,causal-graph2,762024,female,62,English,United States of America,Left,R569528587520gxrw,1.0,,AND_Gate,Short,Event,Bottom,Medium,"[{""selected"":""node7"",""rank"":2},{""selected"":""node14"",""rank"":1},{""selected"":""node15"",""rank"":3}]"
4,27560.235000000917,branch_LTME3,causal-graph2,791867,female,62,English,United States of America,Left,R569528587520gxrw,1.0,,AND_Gate,Medium,Event,Top,Long,"[{""selected"":""node5"",""rank"":1},{""selected"":""node6"",""rank"":2},{""selected"":""node7"",""rank"":3},{""selected"":""node12"",""rank"":4},{""selected"":""node13"",""rank"":5},{""selected"":""node14"",""rank"":6},{""selected"":""node15"",""rank"":7}]"
4,11169.989999998594,branch_LTSS,causal-graph2,808207,female,62,English,United States of America,Left,R569528587520gxrw,1.0,,AND_Gate,Short,State,Top,,"[{""selected"":""node14"",""rank"":1},{""selected"":""node15"",""rank"":2}]"
4,18037.075000000183,chain_LM,causal-graph2,828954,female,62,English,United States of America,Left,R569528587520gxrw,1.0,,Chain,Medium,,,,"[{""selected"":""node5"",""rank"":1},{""selected"":""node6"",""rank"":2},{""selected"":""node7"",""rank"":3},{""selected"":""node8"",""rank"":4}]"
4,72221.03499999864,branch_LTLE2,causal-graph2,904788,female,62,English,United States of America,Left,R569528587520gxrw,1.0,,AND_Gate,Long,Event,Top,Medium,"[{""selected"":""node3"",""rank"":1},{""selected"":""node4"",""rank"":2},{""selected"":""node5"",""rank"":3},{""selected"":""node6"",""rank"":4},{""selected"":""node7"",""rank"":5},{""selected"":""node10"",""rank"":6},{""selected"":""node11"",""rank"":7},{""selected"":""node12"",""rank"":8},{""selected"":""node13"",""rank"":9},{""selected"":""node14"",""rank"":10},{""selected"":""node15"",""rank"":11}]"
4,22144.564999998664,chain_LS,causal-graph2,929214,female,62,English,United States of America,Left,R569528587520gxrw,1.0,,Chain,Short,,,,"[{""selected"":""node7"",""rank"":1},{""selected"":""node8"",""rank"":2}]"
4,19835.89500000002,branch_LBLS,causal-graph2,953113,female,62,English,United States of America,Left,R569528587520gxrw,1.0,,AND_Gate,Long,State,Bottom,,"[{""selected"":""node3"",""rank"":1},{""selected"":""node4"",""rank"":2},{""selected"":""node5"",""rank"":3},{""selected"":""node6"",""rank"":4},{""selected"":""node7"",""rank"":5},{""selected"":""node15"",""rank"":6}]"
4,57359.90499999769,branch_LBLE3,causal-graph2,1012697,female,62,English,United States of America,Left,R569528587520gxrw,1.0,,AND_Gate,Long,Event,Bottom,Long,"[{""selected"":""node3"",""rank"":6},{""selected"":""node4"",""rank"":7},{""selected"":""node5"",""rank"":8},{""selected"":""node6"",""rank"":9},{""selected"":""node7"",""rank"":10},{""selected"":""node10"",""rank"":1},{""selected"":""node11"",""rank"":2},{""selected"":""node12"",""rank"":3},{""selected"":""node13"",""rank"":4},{""selected"":""node14"",""rank"":5},{""selected"":""node15"",""rank"":11}]"
4,,instruction,image-button-response,1018368,female,62,English,United States of America,Left,R569528587520gxrw,,,,,,,,
4,4501.824999999488,comment,survey-text,1022894,female,62,English,United States of America,Left,R569528587520gxrw,,"{""Q0"":""""}",,,,,,
5,,instruction,image-button-response,34525,female,38,engilsh,United States of America,Right,R565762557280gxrw,,,,,,,,
5,,instruction,causal-graph2,65827,female,38,engilsh,United States of America,Right,R565762557280gxrw,,,,,,,,
5,,instruction,causal-graph2,104629,female,38,engilsh,United States of America,Right,R565762557280gxrw,1.0,,,,,,,
5,,instruction,causal-graph2,112901,female,38,engilsh,United States of America,Right,R565762557280gxrw,,,,,,,,
5,,instruction,causal-graph2,142077,female,38,engilsh,United States of America,Right,R565762557280gxrw,1.0,,,,,,,
5,,instruction,image-button-response,154875,female,38,engilsh,United States of America,Right,R565762557280gxrw,,,,,,,,
5,,instruction,causal-familiarisation,212758,female,38,engilsh,United States of America,Right,R565762557280gxrw,,,,,,,,
5,,instruction,survey-multi-choice,234352,female,38,engilsh,United States of America,Right,R565762557280gxrw,,"{""Q0"":"" To decide what caused the activation of the GCM"",""Q1"":"" A GCM becomes active if at least one of its inputs is active"",""Q2"":"" You should assign a number to every detector in every network""}",,,,,,
5,,instruction,image-button-response,238381,female,38,engilsh,United States of America,Right,R565762557280gxrw,,,,,,,,
5,,instruction,image-button-response,257600,female,38,engilsh,United States of America,Right,R565762557280gxrw,,,,,,,,
5,,instruction,causal-graph2,327271,female,38,engilsh,United States of America,Right,R565762557280gxrw,,,,,,,,
5,,instruction,causal-graph2,350451,female,38,engilsh,United States of America,Right,R565762557280gxrw,1.0,,,,,,,
5,,instruction,causal-graph2,363516,female,38,engilsh,United States of America,Right,R565762557280gxrw,,,,,,,,
5,,instruction,causal-graph2,382166,female,38,engilsh,United States of America,Right,R565762557280gxrw,1.0,,,,,,,
5,,instruction,image-button-response,391527,female,38,engilsh,United States of America,Right,R565762557280gxrw,,,,,,,,
5,,instruction,causal-familiarisation,408468,female,38,engilsh,United States of America,Right,R565762557280gxrw,,,,,,,,
5,,instruction,survey-multi-choice,520631,female,38,engilsh,United States of America,Right,R565762557280gxrw,,"{""Q0"":"" To find out if the Gauge of Critical Moment (GCM) is activated or not"",""Q1"":"" A GCM becomes active if all of its inputs are active"",""Q2"":"" You should click on and rank all detectors that caused the activation of the GCM""}",,,,,,
5,,instruction,image-button-response,528369,female,38,engilsh,United States of America,Right,R565762557280gxrw,,,,,,,,
5,,instruction,image-button-response,531169,female,38,engilsh,United States of America,Right,R565762557280gxrw,,,,,,,,
5,,instruction,causal-graph2,540739,female,38,engilsh,United States of America,Right,R565762557280gxrw,,,,,,,,
5,,instruction,causal-graph2,569359,female,38,engilsh,United States of America,Right,R565762557280gxrw,1.0,,,,,,,
5,,instruction,causal-graph2,577074,female,38,engilsh,United States of America,Right,R565762557280gxrw,,,,,,,,
5,,instruction,causal-graph2,597742,female,38,engilsh,United States of America,Right,R565762557280gxrw,1.0,,,,,,,
5,,instruction,image-button-response,604494,female,38,engilsh,United States of America,Right,R565762557280gxrw,,,,,,,,
5,,instruction,causal-familiarisation,621288,female,38,engilsh,United States of America,Right,R565762557280gxrw,,,,,,,,
5,,instruction,survey-multi-choice,651163,female,38,engilsh,United States of America,Right,R565762557280gxrw,,"{""Q0"":"" To decide what causes the activation of each detector"",""Q1"":"" A GCM becomes active if all of its inputs are active"",""Q2"":"" You should click on and rank all detectors that caused the activation of the GCM""}",,,,,,
5,,instruction,image-button-response,655949,female,38,engilsh,United States of America,Right,R565762557280gxrw,,,,,,,,
5,,instruction,image-button-response,657055,female,38,engilsh,United States of America,Right,R565762557280gxrw,,,,,,,,
5,,instruction,causal-graph2,690447,female,38,engilsh,United States of America,Right,R565762557280gxrw,,,,,,,,
5,,instruction,causal-graph2,713416,female,38,engilsh,United States of America,Right,R565762557280gxrw,2.0,,,,,,,
5,,instruction,causal-graph2,724842,female,38,engilsh,United States of America,Right,R565762557280gxrw,,,,,,,,
5,,instruction,causal-graph2,748179,female,38,engilsh,United States of America,Right,R565762557280gxrw,1.0,,,,,,,
5,,instruction,image-button-response,760463,female,38,engilsh,United States of America,Right,R565762557280gxrw,,,,,,,,
5,,instruction,causal-familiarisation,815596,female,38,engilsh,United States of America,Right,R565762557280gxrw,,,,,,,,
5,,instruction,survey-multi-choice,857602,female,38,engilsh,United States of America,Right,R565762557280gxrw,,"{""Q0"":"" To decide what caused the activation of the GCM"",""Q1"":"" A GCM becomes active if all of its inputs are active"",""Q2"":"" You should click on and rank all detectors that caused the activation of the GCM""}",,,,,,
5,,instruction,image-button-response,918718,female,38,engilsh,United States of America,Right,R565762557280gxrw,,,,,,,,
5,38067.25,branch_RBMS,causal-graph2,966169,female,38,engilsh,United States of America,Right,R565762557280gxrw,1.0,,AND_Gate,Medium,State,Bottom,,"[{""selected"":""node1"",""rank"":1},{""selected"":""node2"",""rank"":1},{""selected"":""node3"",""rank"":2},{""selected"":""node4"",""rank"":1},{""selected"":""node8"",""rank"":1},{""selected"":""node9"",""rank"":1},{""selected"":""node10"",""rank"":2},{""selected"":""node11"",""rank"":1}]"
5,16931.359999998473,branch_RTSS,causal-graph2,991853,female,38,engilsh,United States of America,Right,R565762557280gxrw,1.0,,AND_Gate,Short,State,Top,,"[{""selected"":""node6"",""rank"":2},{""selected"":""node13"",""rank"":2}]"
5,19443.049999998184,branch_RTSE3,causal-graph2,1015873,female,38,engilsh,United States of America,Right,R565762557280gxrw,1.0,,AND_Gate,Short,Event,Top,Long,"[{""selected"":""node5"",""rank"":2},{""selected"":""node6"",""rank"":1},{""selected"":""node12"",""rank"":2},{""selected"":""node13"",""rank"":1}]"
5,25570.37000000151,branch_RTSE1,causal-graph2,1048738,female,38,engilsh,United States of America,Right,R565762557280gxrw,1.0,,AND_Gate,Short,Event,Top,Short,"[{""selected"":""node4"",""rank"":3},{""selected"":""node5"",""rank"":1},{""selected"":""node6"",""rank"":1},{""selected"":""node11"",""rank"":3},{""selected"":""node12"",""rank"":1},{""selected"":""node13"",""rank"":1}]"
5,22484.23999999789,branch_RBLS,causal-graph2,1085389,female,38,engilsh,United States of America,Right,R565762557280gxrw,1.0,,AND_Gate,Long,State,Bottom,,"[{""selected"":""node1"",""rank"":1},{""selected"":""node2"",""rank"":5},{""selected"":""node8"",""rank"":1},{""selected"":""node9"",""rank"":5}]"
5,11794.460000001129,chain_RS,causal-graph2,1104641,female,38,engilsh,United States of America,Right,R565762557280gxrw,1.0,,Chain,Short,,,,"[{""selected"":""node5"",""rank"":1},{""selected"":""node6"",""rank"":1}]"
5,15986.005000002682,branch_RTSE2,causal-graph2,1124623,female,38,engilsh,United States of America,Right,R565762557280gxrw,1.0,,AND_Gate,Short,Event,Top,Medium,"[{""selected"":""node5"",""rank"":2},{""selected"":""node6"",""rank"":1},{""selected"":""node12"",""rank"":2},{""selected"":""node13"",""rank"":1}]"
5,31138.25,branch_RTME3,causal-graph2,1159534,female,38,engilsh,United States of America,Right,R565762557280gxrw,1.0,,AND_Gate,Medium,Event,Top,Long,"[{""selected"":""node2"",""rank"":4},{""selected"":""node3"",""rank"":1},{""selected"":""node4"",""rank"":3},{""selected"":""node9"",""rank"":4},{""selected"":""node10"",""rank"":1},{""selected"":""node11"",""rank"":3}]"
5,28017.004999998022,branch_RTME2,causal-graph2,1191751,female,38,engilsh,United States of America,Right,R565762557280gxrw,1.0,,AND_Gate,Medium,Event,Top,Medium,"[{""selected"":""node2"",""rank"":4},{""selected"":""node3"",""rank"":1},{""selected"":""node4"",""rank"":3},{""selected"":""node9"",""rank"":4},{""selected"":""node10"",""rank"":1},{""selected"":""node11"",""rank"":3}]"
5,24922.33999999729,branch_RBLE2,causal-graph2,1220725,female,38,engilsh,United States of America,Right,R565762557280gxrw,1.0,,AND_Gate,Long,Event,Bottom,Medium,"[{""selected"":""node1"",""rank"":1},{""selected"":""node2"",""rank"":5},{""selected"":""node8"",""rank"":1},{""selected"":""node9"",""rank"":5}]"
5,25746.34000000148,branch_RTLE3,causal-graph2,1250744,female,38,engilsh,United States of America,Right,R565762557280gxrw,1.0,,AND_Gate,Long,Event,Top,Long,"[{""selected"":""node1"",""rank"":1},{""selected"":""node2"",""rank"":5},{""selected"":""node8"",""rank"":1},{""selected"":""node9"",""rank"":5}]"
5,34126.324999997385,branch_RBLE1,causal-graph2,1289188,female,38,engilsh,United States of America,Right,R565762557280gxrw,1.0,,AND_Gate,Long,Event,Bottom,Short,"[{""selected"":""node1"",""rank"":5},{""selected"":""node2"",""rank"":1},{""selected"":""node8"",""rank"":1},{""selected"":""node9"",""rank"":5}]"
5,22359.640000002222,branch_RTME1,causal-graph2,1315601,female,38,engilsh,United States of America,Right,R565762557280gxrw,1.0,,AND_Gate,Medium,Event,Top,Short,"[{""selected"":""node1"",""rank"":1},{""selected"":""node2"",""rank"":1},{""selected"":""node3"",""rank"":1},{""selected"":""node4"",""rank"":1},{""selected"":""node8"",""rank"":1},{""selected"":""node9"",""rank"":1},{""selected"":""node10"",""rank"":1},{""selected"":""node11"",""rank"":1}]"
5,16621.974999998234,chain_RM,causal-graph2,1335782,female,38,engilsh,United States of America,Right,R565762557280gxrw,1.0,,Chain,Medium,,,,"[{""selected"":""node3"",""rank"":3},{""selected"":""node4"",""rank"":1}]"
5,15027.229999999749,chain_RL,causal-graph2,1354677,female,38,engilsh,United States of America,Right,R565762557280gxrw,1.0,,Chain,Long,,,,"[{""selected"":""node1"",""rank"":1},{""selected"":""node2"",""rank"":5}]"
5,,instruction,image-button-response,1359055,female,38,engilsh,United States of America,Right,R565762557280gxrw,,,,,,,,
5,29780.279999999097,comment,survey-text,1388854,female,38,engilsh,United States of America,Right,R565762557280gxrw,,"{""Q0"":""It was a little hurt""}",,,,,,
6,,instruction,image-button-response,5717,male,30,English,United States of America,Left,R567048137390gxrw,,,,,,,,
6,,instruction,causal-graph2,12868,male,30,English,United States of America,Left,R567048137390gxrw,,,,,,,,
6,,instruction,causal-graph2,23458,male,30,English,United States of America,Left,R567048137390gxrw,1.0,,,,,,,
6,,instruction,causal-graph2,27353,male,30,English,United States of America,Left,R567048137390gxrw,,,,,,,,
6,,instruction,causal-graph2,48377,male,30,English,United States of America,Left,R567048137390gxrw,1.0,,,,,,,
6,,instruction,image-button-response,51240,male,30,English,United States of America,Left,R567048137390gxrw,,,,,,,,
6,,instruction,causal-familiarisation,167393,male,30,English,United States of America,Left,R567048137390gxrw,,,,,,,,
6,,instruction,survey-multi-choice,174414,male,30,English,United States of America,Left,R567048137390gxrw,,"{""Q0"":"" To find out if the Gauge of Critical Moment (GCM) is activated or not"",""Q1"":"" A GCM becomes active if at least one of its inputs is active"",""Q2"":"" You should assign a number to every detector in every network""}",,,,,,
6,,instruction,image-button-response,177789,male,30,English,United States of America,Left,R567048137390gxrw,,,,,,,,
6,,instruction,image-button-response,185274,male,30,English,United States of America,Left,R567048137390gxrw,,,,,,,,
6,,instruction,causal-graph2,190914,male,30,English,United States of America,Left,R567048137390gxrw,,,,,,,,
6,,instruction,causal-graph2,203421,male,30,English,United States of America,Left,R567048137390gxrw,1.0,,,,,,,
6,,instruction,causal-graph2,204701,male,30,English,United States of America,Left,R567048137390gxrw,,,,,,,,
6,,instruction,causal-graph2,218051,male,30,English,United States of America,Left,R567048137390gxrw,1.0,,,,,,,
6,,instruction,image-button-response,239048,male,30,English,United States of America,Left,R567048137390gxrw,,,,,,,,
6,,instruction,causal-familiarisation,282429,male,30,English,United States of America,Left,R567048137390gxrw,,,,,,,,
6,,instruction,survey-multi-choice,734901,male,30,English,United States of America,Left,R567048137390gxrw,,"{""Q0"":"" To decide what caused the activation of the GCM"",""Q1"":"" A GCM becomes active if at least one of its inputs is active"",""Q2"":"" You should assign a number to every detector in every network""}",,,,,,
6,,instruction,image-button-response,737464,male,30,English,United States of America,Left,R567048137390gxrw,,,,,,,,
6,,instruction,image-button-response,742814,male,30,English,United States of America,Left,R567048137390gxrw,,,,,,,,
6,,instruction,causal-graph2,755590,male,30,English,United States of America,Left,R567048137390gxrw,,,,,,,,
6,,instruction,causal-graph2,812277,male,30,English,United States of America,Left,R567048137390gxrw,1.0,,,,,,,
6,,instruction,causal-graph2,820364,male,30,English,United States of America,Left,R567048137390gxrw,,,,,,,,
6,,instruction,causal-graph2,838853,male,30,English,United States of America,Left,R567048137390gxrw,1.0,,,,,,,
6,,instruction,image-button-response,841341,male,30,English,United States of America,Left,R567048137390gxrw,,,,,,,,
6,,instruction,causal-familiarisation,869744,male,30,English,United States of America,Left,R567048137390gxrw,,,,,,,,
6,,instruction,survey-multi-choice,918526,male,30,English,United States of America,Left,R567048137390gxrw,,"{""Q0"":"" To decide what caused the activation of the GCM"",""Q1"":"" A GCM can activate itself at any stage"",""Q2"":"" You should click on only one detector in each network""}",,,,,,
6,,instruction,image-button-response,920408,male,30,English,United States of America,Left,R567048137390gxrw,,,,,,,,
6,,instruction,image-button-response,932694,male,30,English,United States of America,Left,R567048137390gxrw,,,,,,,,
6,,instruction,causal-graph2,936531,male,30,English,United States of America,Left,R567048137390gxrw,,,,,,,,
6,,instruction,causal-graph2,946717,male,30,English,United States of America,Left,R567048137390gxrw,1.0,,,,,,,
6,,instruction,causal-graph2,948702,male,30,English,United States of America,Left,R567048137390gxrw,,,,,,,,
6,,instruction,causal-graph2,968511,male,30,English,United States of America,Left,R567048137390gxrw,1.0,,,,,,,
6,,instruction,image-button-response,970140,male,30,English,United States of America,Left,R567048137390gxrw,,,,,,,,
6,,instruction,causal-familiarisation,984369,male,30,English,United States of America,Left,R567048137390gxrw,,,,,,,,
6,,instruction,survey-multi-choice,1089339,male,30,English,United States of America,Left,R567048137390gxrw,,"{""Q0"":"" To decide what caused the activation of the GCM"",""Q1"":"" A GCM becomes active if all of its inputs are active"",""Q2"":"" You should click on and rank all detectors that caused the activation of the GCM""}",,,,,,
6,,instruction,image-button-response,1091997,male,30,English,United States of America,Left,R567048137390gxrw,,,,,,,,
6,33672.00000002049,chain_LL,causal-graph2,1132089,male,30,English,United States of America,Left,R567048137390gxrw,1.0,,Chain,Long,,,,"[{""selected"":""node1"",""rank"":1},{""selected"":""node2"",""rank"":1},{""selected"":""node4"",""rank"":3},{""selected"":""node5"",""rank"":1},{""selected"":""node7"",""rank"":1}]"
6,28002.99999996787,branch_LTME1,causal-graph2,1174834,male,30,English,United States of America,Left,R567048137390gxrw,1.0,,AND_Gate,Medium,Event,Top,Short,"[{""selected"":""node3"",""rank"":1},{""selected"":""node4"",""rank"":1},{""selected"":""node5"",""rank"":1},{""selected"":""node6"",""rank"":1},{""selected"":""node7"",""rank"":1},{""selected"":""node12"",""rank"":1},{""selected"":""node13"",""rank"":1},{""selected"":""node14"",""rank"":1}]"
6,13046.99999996228,branch_LTMS,causal-graph2,1195788,male,30,English,United States of America,Left,R567048137390gxrw,1.0,,AND_Gate,Medium,State,Top,,"[{""selected"":""node4"",""rank"":1},{""selected"":""node10"",""rank"":1},{""selected"":""node11"",""rank"":1}]"
6,27146.999999997206,branch_LTLE1,causal-graph2,1483028,male,30,English,United States of America,Left,R567048137390gxrw,1.0,,AND_Gate,Long,Event,Top,Short,"[{""selected"":""node3"",""rank"":1},{""selected"":""node4"",""rank"":1},{""selected"":""node5"",""rank"":1},{""selected"":""node6"",""rank"":1},{""selected"":""node7"",""rank"":1},{""selected"":""node10"",""rank"":1},{""selected"":""node11"",""rank"":1},{""selected"":""node12"",""rank"":1},{""selected"":""node13"",""rank"":1},{""selected"":""node14"",""rank"":1}]"
6,14380.000000004657,chain_LS,causal-graph2,1505182,male,30,English,United States of America,Left,R567048137390gxrw,1.0,,Chain,Short,,,,"[{""selected"":""node1"",""rank"":1},{""selected"":""node2"",""rank"":1},{""selected"":""node3"",""rank"":1},{""selected"":""node4"",""rank"":1},{""selected"":""node5"",""rank"":1},{""selected"":""node6"",""rank"":2},{""selected"":""node7"",""rank"":1},{""selected"":""node8"",""rank"":1}]"
6,23997.999999963213,branch_LTME2,causal-graph2,1536092,male,30,English,United States of America,Left,R567048137390gxrw,1.0,,AND_Gate,Medium,Event,Top,Medium,"[{""selected"":""node3"",""rank"":1},{""selected"":""node4"",""rank"":1},{""selected"":""node11"",""rank"":1}]"
6,27234.99999998603,branch_LBLE3,causal-graph2,1568427,male,30,English,United States of America,Left,R567048137390gxrw,1.0,,AND_Gate,Long,Event,Bottom,Long,"[{""selected"":""node3"",""rank"":1},{""selected"":""node4"",""rank"":1},{""selected"":""node5"",""rank"":1},{""selected"":""node6"",""rank"":1},{""selected"":""node7"",""rank"":1},{""selected"":""node10"",""rank"":1},{""selected"":""node11"",""rank"":1},{""selected"":""node12"",""rank"":2},{""selected"":""node13"",""rank"":1},{""selected"":""node14"",""rank"":2},{""selected"":""node15"",""rank"":1}]"
6,24236.99999996461,branch_LTSE2,causal-graph2,1598848,male,30,English,United States of America,Left,R567048137390gxrw,1.0,,AND_Gate,Short,Event,Top,Medium,"[{""selected"":""node1"",""rank"":1},{""selected"":""node2"",""rank"":1},{""selected"":""node3"",""rank"":1},{""selected"":""node4"",""rank"":1},{""selected"":""node5"",""rank"":1},{""selected"":""node6"",""rank"":1},{""selected"":""node8"",""rank"":1},{""selected"":""node9"",""rank"":1},{""selected"":""node10"",""rank"":1},{""selected"":""node11"",""rank"":1},{""selected"":""node12"",""rank"":1},{""selected"":""node13"",""rank"":1}]"
6,12101.000000024214,branch_LBSS,causal-graph2,1618940,male,30,English,United States of America,Left,R567048137390gxrw,1.0,,AND_Gate,Short,State,Bottom,,"[{""selected"":""node4"",""rank"":1},{""selected"":""node7"",""rank"":1},{""selected"":""node11"",""rank"":1},{""selected"":""node12"",""rank"":1},{""selected"":""node13"",""rank"":1},{""selected"":""node14"",""rank"":1}]"
6,15229.999999981375,chain_LM,causal-graph2,1638602,male,30,English,United States of America,Left,R567048137390gxrw,1.0,,Chain,Medium,,,,"[{""selected"":""node3"",""rank"":1},{""selected"":""node4"",""rank"":2},{""selected"":""node5"",""rank"":1},{""selected"":""node6"",""rank"":1},{""selected"":""node7"",""rank"":1},{""selected"":""node8"",""rank"":1}]"
6,38792.00000001583,branch_LTME3,causal-graph2,1680070,male,30,English,United States of America,Left,R567048137390gxrw,1.0,,AND_Gate,Medium,Event,Top,Long,"[{""selected"":""node1"",""rank"":1},{""selected"":""node2"",""rank"":1},{""selected"":""node3"",""rank"":1},{""selected"":""node4"",""rank"":1},{""selected"":""node5"",""rank"":1},{""selected"":""node10"",""rank"":1},{""selected"":""node11"",""rank"":1},{""selected"":""node12"",""rank"":1}]"
6,14415.999999968335,branch_LBSE1,causal-graph2,1700380,male,30,English,United States of America,Left,R567048137390gxrw,1.0,,AND_Gate,Short,Event,Bottom,Short,"[{""selected"":""node5"",""rank"":1},{""selected"":""node6"",""rank"":1},{""selected"":""node7"",""rank"":1},{""selected"":""node13"",""rank"":1},{""selected"":""node14"",""rank"":1},{""selected"":""node15"",""rank"":1}]"
6,14895.000000018625,branch_LBLS,causal-graph2,1726227,male,30,English,United States of America,Left,R567048137390gxrw,1.0,,AND_Gate,Long,State,Bottom,,"[{""selected"":""node3"",""rank"":1},{""selected"":""node4"",""rank"":1},{""selected"":""node5"",""rank"":1},{""selected"":""node6"",""rank"":1},{""selected"":""node10"",""rank"":1},{""selected"":""node11"",""rank"":1},{""selected"":""node12"",""rank"":1},{""selected"":""node13"",""rank"":1},{""selected"":""node14"",""rank"":1}]"
6,15227.999999944584,branch_LTSE3,causal-graph2,1748575,male,30,English,United States of America,Left,R567048137390gxrw,1.0,,AND_Gate,Short,Event,Top,Long,"[{""selected"":""node6"",""rank"":1},{""selected"":""node7"",""rank"":1},{""selected"":""node13"",""rank"":2},{""selected"":""node14"",""rank"":1},{""selected"":""node15"",""rank"":2}]"
6,18186.00000004517,branch_LTLE2,causal-graph2,1770785,male,30,English,United States of America,Left,R567048137390gxrw,1.0,,AND_Gate,Long,Event,Top,Medium,"[{""selected"":""node1"",""rank"":1},{""selected"":""node2"",""rank"":2},{""selected"":""node8"",""rank"":2},{""selected"":""node9"",""rank"":1},{""selected"":""node10"",""rank"":1},{""selected"":""node11"",""rank"":1},{""selected"":""node12"",""rank"":1}]"
6,,instruction,image-button-response,1775246,male,30,English,United States of America,Left,R567048137390gxrw,,,,,,,,
6,2195.9999999962747,comment,survey-text,1777468,male,30,English,United States of America,Left,R567048137390gxrw,,"{""Q0"":""""}",,,,,,
7,,instruction,image-button-response,7593,female,32,English,United States of America,Left,R567829347570gxrw,,,,,,,,
7,,instruction,causal-graph2,13037,female,32,English,United States of America,Left,R567829347570gxrw,,,,,,,,
7,,instruction,causal-graph2,20006,female,32,English,United States of America,Left,R567829347570gxrw,1.0,,,,,,,
7,,instruction,causal-graph2,21807,female,32,English,United States of America,Left,R567829347570gxrw,,,,,,,,
7,,instruction,causal-graph2,33476,female,32,English,United States of America,Left,R567829347570gxrw,1.0,,,,,,,
7,,instruction,image-button-response,35246,female,32,English,United States of America,Left,R567829347570gxrw,,,,,,,,
7,,instruction,causal-familiarisation,68626,female,32,English,United States of America,Left,R567829347570gxrw,,,,,,,,
7,,instruction,survey-multi-choice,97786,female,32,English,United States of America,Left,R567829347570gxrw,,"{""Q0"":"" To decide what caused the activation of the GCM"",""Q1"":"" A GCM can activate itself at any stage"",""Q2"":"" You should assign a number to every detector in every network""}",,,,,,
7,,instruction,image-button-response,101086,female,32,English,United States of America,Left,R567829347570gxrw,,,,,,,,
7,,instruction,image-button-response,102455,female,32,English,United States of America,Left,R567829347570gxrw,,,,,,,,
7,,instruction,causal-graph2,104135,female,32,English,United States of America,Left,R567829347570gxrw,,,,,,,,
7,,instruction,causal-graph2,128756,female,32,English,United States of America,Left,R567829347570gxrw,1.0,,,,,,,
7,,instruction,causal-graph2,131035,female,32,English,United States of America,Left,R567829347570gxrw,,,,,,,,
7,,instruction,causal-graph2,143127,female,32,English,United States of America,Left,R567829347570gxrw,1.0,,,,,,,
7,,instruction,image-button-response,144796,female,32,English,United States of America,Left,R567829347570gxrw,,,,,,,,
7,,instruction,causal-familiarisation,159965,female,32,English,United States of America,Left,R567829347570gxrw,,,,,,,,
7,,instruction,survey-multi-choice,511232,female,32,English,United States of America,Left,R567829347570gxrw,,"{""Q0"":"" To decide what causes the activation of each detector"",""Q1"":"" A GCM becomes active if at least one of its inputs is active"",""Q2"":"" You should click on only one detector in each network""}",,,,,,
7,,instruction,image-button-response,513012,female,32,English,United States of America,Left,R567829347570gxrw,,,,,,,,
7,,instruction,image-button-response,545780,female,32,English,United States of America,Left,R567829347570gxrw,,,,,,,,
7,,instruction,causal-graph2,548435,female,32,English,United States of America,Left,R567829347570gxrw,,,,,,,,
7,,instruction,causal-graph2,588672,female,32,English,United States of America,Left,R567829347570gxrw,1.0,,,,,,,
7,,instruction,causal-graph2,590652,female,32,English,United States of America,Left,R567829347570gxrw,,,,,,,,
7,,instruction,causal-graph2,601972,female,32,English,United States of America,Left,R567829347570gxrw,1.0,,,,,,,
7,,instruction,image-button-response,603372,female,32,English,United States of America,Left,R567829347570gxrw,,,,,,,,
7,,instruction,causal-familiarisation,615622,female,32,English,United States of America,Left,R567829347570gxrw,,,,,,,,
7,,instruction,survey-multi-choice,915971,female,32,English,United States of America,Left,R567829347570gxrw,,"{""Q0"":"" To decide what caused the activation of the GCM"",""Q1"":"" A GCM becomes active if at least one of its inputs is active"",""Q2"":"" You should assign a number to every detector in every network""}",,,,,,
7,,instruction,image-button-response,921117,female,32,English,United States of America,Left,R567829347570gxrw,,,,,,,,
7,,instruction,image-button-response,922310,female,32,English,United States of America,Left,R567829347570gxrw,,,,,,,,
7,,instruction,causal-graph2,923931,female,32,English,United States of America,Left,R567829347570gxrw,,,,,,,,
7,,instruction,causal-graph2,946731,female,32,English,United States of America,Left,R567829347570gxrw,1.0,,,,,,,
7,,instruction,causal-graph2,952590,female,32,English,United States of America,Left,R567829347570gxrw,,,,,,,,
7,,instruction,causal-graph2,1002156,female,32,English,United States of America,Left,R567829347570gxrw,1.0,,,,,,,
7,,instruction,image-button-response,1004287,female,32,English,United States of America,Left,R567829347570gxrw,,,,,,,,
7,,instruction,causal-familiarisation,1022266,female,32,English,United States of America,Left,R567829347570gxrw,,,,,,,,
7,,instruction,survey-multi-choice,1178481,female,32,English,United States of America,Left,R567829347570gxrw,,"{""Q0"":"" To decide what caused the activation of the GCM"",""Q1"":"" A GCM becomes active if all of its inputs are active"",""Q2"":"" You should click on and rank all detectors that caused the activation of the GCM""}",,,,,,
7,,instruction,image-button-response,1190482,female,32,English,United States of America,Left,R567829347570gxrw,,,,,,,,
7,31569.750000024214,branch_LTMS,causal-graph2,1253550,female,32,English,United States of America,Left,R567829347570gxrw,4.0,,AND_Gate,Medium,State,Top,,"[{""selected"":""node5"",""rank"":1},{""selected"":""node6"",""rank"":1},{""selected"":""node7"",""rank"":1},{""selected"":""node15"",""rank"":1}]"
7,15238.495000055991,branch_LTME2,causal-graph2,1273260,female,32,English,United States of America,Left,R567829347570gxrw,1.0,,AND_Gate,Medium,Event,Top,Medium,"[{""selected"":""node12"",""rank"":1},{""selected"":""node13"",""rank"":1},{""selected"":""node14"",""rank"":1},{""selected"":""node15"",""rank"":1}]"
7,30472.070000017997,chain_LM,causal-graph2,1307450,female,32,English,United States of America,Left,R567829347570gxrw,1.0,,Chain,Medium,,,,"[{""selected"":""node5"",""rank"":1},{""selected"":""node6"",""rank"":1},{""selected"":""node7"",""rank"":1},{""selected"":""node8"",""rank"":1}]"
7,19268.49000004586,branch_LBLE2,causal-graph2,1330250,female,32,English,United States of America,Left,R567829347570gxrw,1.0,,AND_Gate,Long,Event,Bottom,Medium,"[{""selected"":""node3"",""rank"":1},{""selected"":""node4"",""rank"":1},{""selected"":""node5"",""rank"":1},{""selected"":""node6"",""rank"":1},{""selected"":""node7"",""rank"":1},{""selected"":""node15"",""rank"":1}]"
7,44988.64500003401,branch_LBLE3,causal-graph2,1379170,female,32,English,United States of America,Left,R567829347570gxrw,1.0,,AND_Gate,Long,Event,Bottom,Long,"[{""selected"":""node10"",""rank"":1},{""selected"":""node11"",""rank"":1},{""selected"":""node12"",""rank"":1},{""selected"":""node13"",""rank"":1},{""selected"":""node14"",""rank"":1},{""selected"":""node15"",""rank"":1}]"
7,11683.059999952093,branch_LBSS,causal-graph2,1396310,female,32,English,United States of America,Left,R567829347570gxrw,1.0,,AND_Gate,Short,State,Bottom,,"[{""selected"":""node7"",""rank"":1},{""selected"":""node15"",""rank"":1}]"
7,19024.08500004094,branch_LBLE1,causal-graph2,1419330,female,32,English,United States of America,Left,R567829347570gxrw,1.0,,AND_Gate,Long,Event,Bottom,Short,"[{""selected"":""node3"",""rank"":1},{""selected"":""node4"",""rank"":1},{""selected"":""node5"",""rank"":1},{""selected"":""node6"",""rank"":1},{""selected"":""node7"",""rank"":1},{""selected"":""node15"",""rank"":1}]"
7,14048.405000008644,branch_LTSE2,causal-graph2,1436131,female,32,English,United States of America,Left,R567829347570gxrw,1.0,,AND_Gate,Short,Event,Top,Medium,"[{""selected"":""node7"",""rank"":1},{""selected"":""node15"",""rank"":1}]"
7,12409.97499995865,branch_LTSE1,causal-graph2,1452951,female,32,English,United States of America,Left,R567829347570gxrw,1.0,,AND_Gate,Short,Event,Top,Short,"[{""selected"":""node14"",""rank"":1},{""selected"":""node15"",""rank"":1}]"
7,33229.114999994636,branch_LTSE3,causal-graph2,1513171,female,32,English,United States of America,Left,R567829347570gxrw,2.0,,AND_Gate,Short,Event,Top,Long,"[{""selected"":""node7"",""rank"":1},{""selected"":""node14"",""rank"":1},{""selected"":""node15"",""rank"":2}]"
7,27260.37999999244,chain_LL,causal-graph2,1543651,female,32,English,United States of America,Left,R567829347570gxrw,1.0,,Chain,Long,,,,"[{""selected"":""node3"",""rank"":1},{""selected"":""node4"",""rank"":2},{""selected"":""node5"",""rank"":3},{""selected"":""node6"",""rank"":4},{""selected"":""node7"",""rank"":5},{""selected"":""node8"",""rank"":6}]"
7,16757.44499999564,branch_LTME1,causal-graph2,1563521,female,32,English,United States of America,Left,R567829347570gxrw,1.0,,AND_Gate,Medium,Event,Top,Short,"[{""selected"":""node5"",""rank"":1},{""selected"":""node6"",""rank"":2},{""selected"":""node7"",""rank"":3},{""selected"":""node15"",""rank"":4}]"
7,21358.404999948107,branch_LBME3,causal-graph2,1588371,female,32,English,United States of America,Left,R567829347570gxrw,1.0,,AND_Gate,Medium,Event,Bottom,Long,"[{""selected"":""node12"",""rank"":1},{""selected"":""node13"",""rank"":2},{""selected"":""node14"",""rank"":3},{""selected"":""node15"",""rank"":4}]"
7,23669.854999985542,branch_LBLS,causal-graph2,1615233,female,32,English,United States of America,Left,R567829347570gxrw,1.0,,AND_Gate,Long,State,Bottom,,"[{""selected"":""node3"",""rank"":1},{""selected"":""node4"",""rank"":2},{""selected"":""node5"",""rank"":3},{""selected"":""node6"",""rank"":4},{""selected"":""node7"",""rank"":5},{""selected"":""node15"",""rank"":6}]"
7,9521.569999982603,chain_LS,causal-graph2,1639881,female,32,English,United States of America,Left,R567829347570gxrw,2.0,,Chain,Short,,,,"[{""selected"":""node7"",""rank"":1},{""selected"":""node8"",""rank"":2}]"
7,,instruction,image-button-response,1645151,female,32,English,United States of America,Left,R567829347570gxrw,,,,,,,,
7,94507.85499997436,comment,survey-text,1739669,female,32,English,United States of America,Left,R567829347570gxrw,,"{""Q0"":""Awesome survey. ""}",,,,,,
8,,instruction,image-button-response,34269,male,25,english,United States of America,Left,R568281927560gxrw,,,,,,,,
8,,instruction,causal-graph2,51917,male,25,english,United States of America,Left,R568281927560gxrw,,,,,,,,
8,,instruction,causal-graph2,87844,male,25,english,United States of America,Left,R568281927560gxrw,1.0,,,,,,,
8,,instruction,causal-graph2,101718,male,25,english,United States of America,Left,R568281927560gxrw,,,,,,,,
8,,instruction,causal-graph2,129439,male,25,english,United States of America,Left,R568281927560gxrw,1.0,,,,,,,
8,,instruction,image-button-response,153003,male,25,english,United States of America,Left,R568281927560gxrw,,,,,,,,
8,,instruction,causal-familiarisation,249438,male,25,english,United States of America,Left,R568281927560gxrw,,,,,,,,
8,,instruction,survey-multi-choice,465463,male,25,english,United States of America,Left,R568281927560gxrw,,"{""Q0"":"" To decide what caused the activation of the GCM"",""Q1"":"" A GCM becomes active if all of its inputs are active"",""Q2"":"" You should click on and rank all detectors that caused the activation of the GCM""}",,,,,,
8,,instruction,image-button-response,469537,male,25,english,United States of America,Left,R568281927560gxrw,,,,,,,,
8,135101.66499996558,branch_LBSE1,causal-graph2,622703,male,25,english,United States of America,Left,R568281927560gxrw,2.0,,AND_Gate,Short,Event,Bottom,Short,"[{""selected"":""node1"",""rank"":6},{""selected"":""node2"",""rank"":5},{""selected"":""node3"",""rank"":4},{""selected"":""node4"",""rank"":3},{""selected"":""node5"",""rank"":2},{""selected"":""node6"",""rank"":1},{""selected"":""node8"",""rank"":6},{""selected"":""node9"",""rank"":5},{""selected"":""node10"",""rank"":4},{""selected"":""node11"",""rank"":3},{""selected"":""node12"",""rank"":2},{""selected"":""node13"",""rank"":1}]"
8,74929.61500003003,branch_LBSE2,causal-graph2,701559,male,25,english,United States of America,Left,R568281927560gxrw,1.0,,AND_Gate,Short,Event,Bottom,Medium,"[{""selected"":""node1"",""rank"":6},{""selected"":""node2"",""rank"":5},{""selected"":""node3"",""rank"":4},{""selected"":""node4"",""rank"":3},{""selected"":""node5"",""rank"":2},{""selected"":""node6"",""rank"":1},{""selected"":""node8"",""rank"":6},{""selected"":""node9"",""rank"":5},{""selected"":""node10"",""rank"":4},{""selected"":""node11"",""rank"":3},{""selected"":""node12"",""rank"":2},{""selected"":""node13"",""rank"":1}]"
8,33222.545000026,branch_LTME3,causal-graph2,740258,male,25,english,United States of America,Left,R568281927560gxrw,1.0,,AND_Gate,Medium,Event,Top,Long,"[{""selected"":""node1"",""rank"":4},{""selected"":""node2"",""rank"":3},{""selected"":""node3"",""rank"":2},{""selected"":""node4"",""rank"":1},{""selected"":""node8"",""rank"":4},{""selected"":""node9"",""rank"":3},{""selected"":""node10"",""rank"":2},{""selected"":""node11"",""rank"":1}]"
8,42062.365000136204,branch_LBSE3,causal-graph2,785866,male,25,english,United States of America,Left,R568281927560gxrw,1.0,,AND_Gate,Short,Event,Bottom,Long,"[{""selected"":""node1"",""rank"":6},{""selected"":""node2"",""rank"":5},{""selected"":""node3"",""rank"":4},{""selected"":""node4"",""rank"":3},{""selected"":""node5"",""rank"":2},{""selected"":""node6"",""rank"":1},{""selected"":""node8"",""rank"":6},{""selected"":""node9"",""rank"":5},{""selected"":""node10"",""rank"":4},{""selected"":""node11"",""rank"":3},{""selected"":""node12"",""rank"":2},{""selected"":""node13"",""rank"":1}]"
8,26877.480000024658,branch_LBLE2,causal-graph2,815609,male,25,english,United States of America,Left,R568281927560gxrw,1.0,,AND_Gate,Long,Event,Bottom,Medium,"[{""selected"":""node1"",""rank"":2},{""selected"":""node2"",""rank"":1},{""selected"":""node8"",""rank"":2},{""selected"":""node9"",""rank"":1}]"
8,30682.114999974146,branch_LBME2,causal-graph2,850100,male,25,english,United States of America,Left,R568281927560gxrw,1.0,,AND_Gate,Medium,Event,Bottom,Medium,"[{""selected"":""node1"",""rank"":1},{""selected"":""node2"",""rank"":1},{""selected"":""node3"",""rank"":1},{""selected"":""node4"",""rank"":1},{""selected"":""node8"",""rank"":1},{""selected"":""node9"",""rank"":1},{""selected"":""node10"",""rank"":1},{""selected"":""node11"",""rank"":1}]"
8,38500.220000045374,branch_LBME1,causal-graph2,892059,male,25,english,United States of America,Left,R568281927560gxrw,1.0,,AND_Gate,Medium,Event,Bottom,Short,"[{""selected"":""node1"",""rank"":4},{""selected"":""node2"",""rank"":3},{""selected"":""node3"",""rank"":2},{""selected"":""node4"",""rank"":1},{""selected"":""node8"",""rank"":4},{""selected"":""node9"",""rank"":3},{""selected"":""node10"",""rank"":2},{""selected"":""node11"",""rank"":1}]"
8,27740.065000019968,chain_LM,causal-graph2,924571,male,25,english,United States of America,Left,R568281927560gxrw,1.0,,Chain,Medium,,,,"[{""selected"":""node1"",""rank"":1},{""selected"":""node2"",""rank"":1},{""selected"":""node3"",""rank"":1},{""selected"":""node4"",""rank"":1}]"
8,44917.89000015706,chain_LS,causal-graph2,975026,male,25,english,United States of America,Left,R568281927560gxrw,1.0,,Chain,Short,,,,"[{""selected"":""node1"",""rank"":6},{""selected"":""node2"",""rank"":5},{""selected"":""node3"",""rank"":4},{""selected"":""node4"",""rank"":3},{""selected"":""node5"",""rank"":2},{""selected"":""node6"",""rank"":1}]"
8,13311.73499999568,branch_LBLS,causal-graph2,1100192,male,25,english,United States of America,Left,R568281927560gxrw,1.0,,AND_Gate,Long,State,Bottom,,"[{""selected"":""node1"",""rank"":2},{""selected"":""node2"",""rank"":1},{""selected"":""node8"",""rank"":2},{""selected"":""node9"",""rank"":1}]"
8,19624.614999862388,chain_LL,causal-graph2,1124453,male,25,english,United States of America,Left,R568281927560gxrw,1.0,,Chain,Long,,,,"[{""selected"":""node1"",""rank"":2},{""selected"":""node2"",""rank"":1}]"
8,26580.72999981232,branch_LTLE1,causal-graph2,1156458,male,25,english,United States of America,Left,R568281927560gxrw,1.0,,AND_Gate,Long,Event,Top,Short,"[{""selected"":""node1"",""rank"":2},{""selected"":""node2"",""rank"":1},{""selected"":""node8"",""rank"":2},{""selected"":""node9"",""rank"":1}]"
8,24513.159999856725,branch_LBMS,causal-graph2,1186100,male,25,english,United States of America,Left,R568281927560gxrw,1.0,,AND_Gate,Medium,State,Bottom,,"[{""selected"":""node1"",""rank"":4},{""selected"":""node2"",""rank"":3},{""selected"":""node3"",""rank"":2},{""selected"":""node4"",""rank"":1},{""selected"":""node8"",""rank"":4},{""selected"":""node9"",""rank"":3},{""selected"":""node10"",""rank"":2},{""selected"":""node11"",""rank"":1}]"
8,42210.074999835335,branch_LBSS,causal-graph2,1230880,male,25,english,United States of America,Left,R568281927560gxrw,1.0,,AND_Gate,Short,State,Bottom,,"[{""selected"":""node1"",""rank"":6},{""selected"":""node2"",""rank"":5},{""selected"":""node3"",""rank"":4},{""selected"":""node4"",""rank"":3},{""selected"":""node5"",""rank"":2},{""selected"":""node6"",""rank"":1},{""selected"":""node8"",""rank"":6},{""selected"":""node9"",""rank"":5},{""selected"":""node10"",""rank"":4},{""selected"":""node11"",""rank"":3},{""selected"":""node12"",""rank"":2},{""selected"":""node13"",""rank"":1}]"
8,21008.924999972805,branch_LTLE3,causal-graph2,1257131,male,25,english,United States of America,Left,R568281927560gxrw,1.0,,AND_Gate,Long,Event,Top,Long,"[{""selected"":""node1"",""rank"":2},{""selected"":""node2"",""rank"":1},{""selected"":""node8"",""rank"":2},{""selected"":""node9"",""rank"":1}]"
8,,instruction,image-button-response,1269965,male,25,english,United States of America,Left,R568281927560gxrw,,,,,,,,
8,9410.924999974668,comment,survey-text,1279410,male,25,english,United States of America,Left,R568281927560gxrw,,"{""Q0"":""GREAT WORK.""}",,,,,,
9,,instruction,image-button-response,13651,male,50,English,United States of America,Left,R565284437260gxrw,,,,,,,,
9,,instruction,causal-graph2,26870,male,50,English,United States of America,Left,R565284437260gxrw,,,,,,,,
9,,instruction,causal-graph2,40731,male,50,English,United States of America,Left,R565284437260gxrw,1.0,,,,,,,
9,,instruction,causal-graph2,46590,male,50,English,United States of America,Left,R565284437260gxrw,,,,,,,,
9,,instruction,causal-graph2,64540,male,50,English,United States of America,Left,R565284437260gxrw,1.0,,,,,,,
9,,instruction,image-button-response,70850,male,50,English,United States of America,Left,R565284437260gxrw,,,,,,,,
9,,instruction,causal-familiarisation,146091,male,50,English,United States of America,Left,R565284437260gxrw,,,,,,,,
9,,instruction,survey-multi-choice,171550,male,50,English,United States of America,Left,R565284437260gxrw,,"{""Q0"":"" To decide what caused the activation of the GCM"",""Q1"":"" A GCM can activate itself at any stage"",""Q2"":"" You should click on only one detector in each network""}",,,,,,
9,,instruction,image-button-response,174271,male,50,English,United States of America,Left,R565284437260gxrw,,,,,,,,
9,,instruction,image-button-response,186510,male,50,English,United States of America,Left,R565284437260gxrw,,,,,,,,
9,,instruction,causal-graph2,202030,male,50,English,United States of America,Left,R565284437260gxrw,,,,,,,,
9,,instruction,causal-graph2,219010,male,50,English,United States of America,Left,R565284437260gxrw,1.0,,,,,,,
9,,instruction,causal-graph2,225565,male,50,English,United States of America,Left,R565284437260gxrw,,,,,,,,
9,,instruction,causal-graph2,243500,male,50,English,United States of America,Left,R565284437260gxrw,1.0,,,,,,,
9,,instruction,image-button-response,246000,male,50,English,United States of America,Left,R565284437260gxrw,,,,,,,,
9,,instruction,causal-familiarisation,262368,male,50,English,United States of America,Left,R565284437260gxrw,,,,,,,,
9,,instruction,survey-multi-choice,490650,male,50,English,United States of America,Left,R565284437260gxrw,,"{""Q0"":"" To decide what caused the activation of the GCM"",""Q1"":"" A GCM becomes active if all of its inputs are active"",""Q2"":"" You should click on and rank all detectors that caused the activation of the GCM""}",,,,,,
9,,instruction,image-button-response,495510,male,50,English,United States of America,Left,R565284437260gxrw,,,,,,,,
9,569868.4000000358,chain_LL,causal-graph2,1086001,male,50,English,United States of America,Left,R565284437260gxrw,1.0,,Chain,Long,,,,"[{""selected"":""node4"",""rank"":1}]"
9,42525.5050000269,branch_LBSE1,causal-graph2,1133592,male,50,English,United States of America,Left,R565284437260gxrw,1.0,,AND_Gate,Short,Event,Bottom,Short,"[{""selected"":""node4"",""rank"":1},{""selected"":""node5"",""rank"":2},{""selected"":""node11"",""rank"":1},{""selected"":""node12"",""rank"":2}]"
9,19634.025000035763,chain_LS,causal-graph2,1158133,male,50,English,United States of America,Left,R565284437260gxrw,1.0,,Chain,Short,,,,"[{""selected"":""node5"",""rank"":1}]"
9,42607.6100000646,branch_LTLE2,causal-graph2,1204731,male,50,English,United States of America,Left,R565284437260gxrw,1.0,,AND_Gate,Long,Event,Top,Medium,"[{""selected"":""node6"",""rank"":1},{""selected"":""node13"",""rank"":1},{""selected"":""node15"",""rank"":1}]"
9,29087.6350000035,branch_LTME1,causal-graph2,1246660,male,50,English,United States of America,Left,R565284437260gxrw,1.0,,AND_Gate,Medium,Event,Top,Short,"[{""selected"":""node6"",""rank"":2},{""selected"":""node12"",""rank"":1},{""selected"":""node14"",""rank"":3},{""selected"":""node15"",""rank"":6}]"
9,34185.49499998335,branch_LBLS,causal-graph2,1283901,male,50,English,United States of America,Left,R565284437260gxrw,1.0,,AND_Gate,Long,State,Bottom,,"[{""selected"":""node3"",""rank"":1},{""selected"":""node6"",""rank"":1},{""selected"":""node11"",""rank"":1},{""selected"":""node14"",""rank"":2}]"
9,15316.269999952056,branch_LTSE2,causal-graph2,1347839,male,50,English,United States of America,Left,R565284437260gxrw,2.0,,AND_Gate,Short,Event,Top,Medium,"[{""selected"":""node6"",""rank"":1},{""selected"":""node13"",""rank"":1}]"
9,25589.760000002567,branch_LBLE3,causal-graph2,1377352,male,50,English,United States of America,Left,R565284437260gxrw,1.0,,AND_Gate,Long,Event,Bottom,Long,"[{""selected"":""node15"",""rank"":1}]"
9,21034.73500011023,branch_LTLE1,causal-graph2,1401762,male,50,English,United States of America,Left,R565284437260gxrw,1.0,,AND_Gate,Long,Event,Top,Short,"[{""selected"":""node7"",""rank"":1},{""selected"":""node10"",""rank"":1}]"
9,21246.97000009473,branch_LBME3,causal-graph2,1427711,male,50,English,United States of America,Left,R565284437260gxrw,1.0,,AND_Gate,Medium,Event,Bottom,Long,"[{""selected"":""node15"",""rank"":1}]"
9,21220.81500000786,chain_LM,causal-graph2,1462752,male,50,English,United States of America,Left,R565284437260gxrw,1.0,,Chain,Medium,,,,"[{""selected"":""node4"",""rank"":1},{""selected"":""node8"",""rank"":2}]"
9,17538.11000008136,branch_LTSS,causal-graph2,1485501,male,50,English,United States of America,Left,R565284437260gxrw,1.0,,AND_Gate,Short,State,Top,,"[{""selected"":""node7"",""rank"":2},{""selected"":""node14"",""rank"":1},{""selected"":""node15"",""rank"":2}]"
9,21239.919999963604,branch_LTME2,causal-graph2,1509282,male,50,English,United States of America,Left,R565284437260gxrw,1.0,,AND_Gate,Medium,Event,Top,Medium,"[{""selected"":""node5"",""rank"":1},{""selected"":""node7"",""rank"":2},{""selected"":""node13"",""rank"":1},{""selected"":""node15"",""rank"":2}]"
9,21078.734999988228,branch_LBSE3,causal-graph2,1535141,male,50,English,United States of America,Left,R565284437260gxrw,1.0,,AND_Gate,Short,Event,Bottom,Long,"[{""selected"":""node14"",""rank"":1},{""selected"":""node15"",""rank"":2}]"
9,19151.279999990948,branch_LBMS,causal-graph2,1557414,male,50,English,United States of America,Left,R565284437260gxrw,1.0,,AND_Gate,Medium,State,Bottom,,"[{""selected"":""node5"",""rank"":1},{""selected"":""node7"",""rank"":1},{""selected"":""node14"",""rank"":2},{""selected"":""node15"",""rank"":2}]"
9,,instruction,image-button-response,1564242,male,50,English,United States of America,Left,R565284437260gxrw,,,,,,,,
9,25062.854999909174,comment,survey-text,1589312,male,50,English,United States of America,Left,R565284437260gxrw,,"{""Q0"":""scatgitsik@mail.com""}",,,,,,
10,,instruction,image-button-response,15645,female,46,english,United States of America,Left,R564750797630gxrw,,,,,,,,
10,,instruction,causal-graph2,18581,female,46,english,United States of America,Left,R564750797630gxrw,,,,,,,,
10,,instruction,causal-graph2,25528,female,46,english,United States of America,Left,R564750797630gxrw,1.0,,,,,,,
10,,instruction,causal-graph2,27232,female,46,english,United States of America,Left,R564750797630gxrw,,,,,,,,
10,,instruction,causal-graph2,39184,female,46,english,United States of America,Left,R564750797630gxrw,1.0,,,,,,,
10,,instruction,image-button-response,40766,female,46,english,United States of America,Left,R564750797630gxrw,,,,,,,,
10,,instruction,causal-familiarisation,153929,female,46,english,United States of America,Left,R564750797630gxrw,,,,,,,,
10,,instruction,survey-multi-choice,161737,female,46,english,United States of America,Left,R564750797630gxrw,,"{""Q0"":"" To decide what caused the activation of the GCM"",""Q1"":"" A GCM becomes active if all of its inputs are active"",""Q2"":"" You should click on and rank all detectors that caused the activation of the GCM""}",,,,,,
10,,instruction,image-button-response,163519,female,46,english,United States of America,Left,R564750797630gxrw,,,,,,,,
10,61909.34500005097,branch_LBME3,causal-graph2,413713,female,46,english,United States of America,Left,R564750797630gxrw,10.0,,AND_Gate,Medium,Event,Bottom,Long,"[{""selected"":""node11"",""rank"":1}]"
10,27435.704999952577,branch_LBSE3,causal-graph2,445640,female,46,english,United States of America,Left,R564750797630gxrw,1.0,,AND_Gate,Short,Event,Bottom,Long,"[{""selected"":""node13"",""rank"":1}]"
10,14227.07000002265,branch_LBME2,causal-graph2,463874,female,46,english,United States of America,Left,R564750797630gxrw,1.0,,AND_Gate,Medium,Event,Bottom,Medium,"[{""selected"":""node15"",""rank"":1}]"
10,11919.654999976045,chain_LL,causal-graph2,478777,female,46,english,United States of America,Left,R564750797630gxrw,1.0,,Chain,Long,,,,"[{""selected"":""node8"",""rank"":1}]"
10,15173.745000036433,branch_LTLE2,causal-graph2,496425,female,46,english,United States of America,Left,R564750797630gxrw,1.0,,AND_Gate,Long,Event,Top,Medium,"[{""selected"":""node15"",""rank"":1}]"
10,12449.129999964496,branch_LBSE2,causal-graph2,510951,female,46,english,United States of America,Left,R564750797630gxrw,1.0,,AND_Gate,Short,Event,Bottom,Medium,"[{""selected"":""node15"",""rank"":1}]"
10,17225.03999993205,branch_LTLE3,causal-graph2,532815,female,46,english,United States of America,Left,R564750797630gxrw,1.0,,AND_Gate,Long,Event,Top,Long,"[{""selected"":""node15"",""rank"":1}]"
10,16747.380000073463,branch_LTMS,causal-graph2,553688,female,46,english,United States of America,Left,R564750797630gxrw,1.0,,AND_Gate,Medium,State,Top,,"[{""selected"":""node15"",""rank"":1}]"
10,11251.324999961069,branch_LBLS,causal-graph2,577063,female,46,english,United States of America,Left,R564750797630gxrw,1.0,,AND_Gate,Long,State,Bottom,,"[{""selected"":""node10"",""rank"":1}]"
10,9339.535000035541,chain_LS,causal-graph2,589239,female,46,english,United States of America,Left,R564750797630gxrw,1.0,,Chain,Short,,,,"[{""selected"":""node7"",""rank"":1}]"
10,9526.609999942591,chain_LM,causal-graph2,601119,female,46,english,United States of America,Left,R564750797630gxrw,1.0,,Chain,Medium,,,,"[{""selected"":""node5"",""rank"":1}]"
10,31614.38000004273,branch_LTSE1,causal-graph2,634341,female,46,english,United States of America,Left,R564750797630gxrw,1.0,,AND_Gate,Short,Event,Top,Short,"[{""selected"":""node7"",""rank"":1}]"
10,12730.56999989785,branch_LBME1,causal-graph2,649096,female,46,english,United States of America,Left,R564750797630gxrw,1.0,,AND_Gate,Medium,Event,Bottom,Short,"[{""selected"":""node12"",""rank"":1}]"
10,14002.175000030547,branch_LBLE1,causal-graph2,664848,female,46,english,United States of America,Left,R564750797630gxrw,1.0,,AND_Gate,Long,Event,Bottom,Short,"[{""selected"":""node10"",""rank"":1}]"
10,11468.319999985395,branch_LTSS,causal-graph2,680135,female,46,english,United States of America,Left,R564750797630gxrw,1.0,,AND_Gate,Short,State,Top,,"[{""selected"":""node14"",""rank"":1}]"
10,,instruction,image-button-response,682264,female,46,english,United States of America,Left,R564750797630gxrw,,,,,,,,
10,35039.49500003364,comment,survey-text,717426,female,46,english,United States of America,Left,R564750797630gxrw,,"{""Q0"":""i rally liked to this survey""}",,,,,,
11,,instruction,image-button-response,12126,male,41,English,United States of America,Right,R566100787200gxrw,,,,,,,,
11,,instruction,causal-graph2,18383,male,41,English,United States of America,Right,R566100787200gxrw,,,,,,,,
11,,instruction,causal-graph2,42104,male,41,English,United States of America,Right,R566100787200gxrw,1.0,,,,,,,
11,,instruction,causal-graph2,46138,male,41,English,United States of America,Right,R566100787200gxrw,,,,,,,,
11,,instruction,causal-graph2,59652,male,41,English,United States of America,Right,R566100787200gxrw,1.0,,,,,,,
11,,instruction,image-button-response,69679,male,41,English,United States of America,Right,R566100787200gxrw,,,,,,,,
11,,instruction,causal-familiarisation,151312,male,41,English,United States of America,Right,R566100787200gxrw,,,,,,,,
11,,instruction,survey-multi-choice,181020,male,41,English,United States of America,Right,R566100787200gxrw,,"{""Q0"":"" To find out if the Gauge of Critical Moment (GCM) is activated or not"",""Q1"":"" A GCM becomes active if at least one of its inputs is active"",""Q2"":"" You should assign a number to every detector in every network""}",,,,,,
11,,instruction,image-button-response,184877,male,41,English,United States of America,Right,R566100787200gxrw,,,,,,,,
11,,instruction,image-button-response,189123,male,41,English,United States of America,Right,R566100787200gxrw,,,,,,,,
11,,instruction,causal-graph2,194567,male,41,English,United States of America,Right,R566100787200gxrw,,,,,,,,
11,,instruction,causal-graph2,226400,male,41,English,United States of America,Right,R566100787200gxrw,1.0,,,,,,,
11,,instruction,causal-graph2,239149,male,41,English,United States of America,Right,R566100787200gxrw,,,,,,,,
11,,instruction,causal-graph2,262671,male,41,English,United States of America,Right,R566100787200gxrw,1.0,,,,,,,
11,,instruction,image-button-response,272823,male,41,English,United States of America,Right,R566100787200gxrw,,,,,,,,
11,,instruction,causal-familiarisation,288210,male,41,English,United States of America,Right,R566100787200gxrw,,,,,,,,
11,,instruction,survey-multi-choice,354065,male,41,English,United States of America,Right,R566100787200gxrw,,"{""Q0"":"" To find out if the Gauge of Critical Moment (GCM) is activated or not"",""Q1"":"" A GCM becomes active if all of its inputs are active"",""Q2"":"" You should assign a number to every detector in every network""}",,,,,,
11,,instruction,image-button-response,357657,male,41,English,United States of America,Right,R566100787200gxrw,,,,,,,,
11,,instruction,image-button-response,377176,male,41,English,United States of America,Right,R566100787200gxrw,,,,,,,,
11,,instruction,causal-graph2,381562,male,41,English,United States of America,Right,R566100787200gxrw,,,,,,,,
11,,instruction,causal-graph2,397272,male,41,English,United States of America,Right,R566100787200gxrw,1.0,,,,,,,
11,,instruction,causal-graph2,400328,male,41,English,United States of America,Right,R566100787200gxrw,,,,,,,,
11,,instruction,causal-graph2,418724,male,41,English,United States of America,Right,R566100787200gxrw,1.0,,,,,,,
11,,instruction,image-button-response,424797,male,41,English,United States of America,Right,R566100787200gxrw,,,,,,,,
11,,instruction,causal-familiarisation,443853,male,41,English,United States of America,Right,R566100787200gxrw,,,,,,,,
11,,instruction,survey-multi-choice,481443,male,41,English,United States of America,Right,R566100787200gxrw,,"{""Q0"":"" To decide what causes the activation of each detector"",""Q1"":"" A GCM becomes active if all of its inputs are active"",""Q2"":"" You should click on and rank all detectors that caused the activation of the GCM""}",,,,,,
11,,instruction,image-button-response,484416,male,41,English,United States of America,Right,R566100787200gxrw,,,,,,,,
11,,instruction,image-button-response,490759,male,41,English,United States of America,Right,R566100787200gxrw,,,,,,,,
11,,instruction,causal-graph2,494835,male,41,English,United States of America,Right,R566100787200gxrw,,,,,,,,
11,,instruction,causal-graph2,506133,male,41,English,United States of America,Right,R566100787200gxrw,1.0,,,,,,,
11,,instruction,causal-graph2,510395,male,41,English,United States of America,Right,R566100787200gxrw,,,,,,,,
11,,instruction,causal-graph2,522236,male,41,English,United States of America,Right,R566100787200gxrw,1.0,,,,,,,
11,,instruction,image-button-response,525651,male,41,English,United States of America,Right,R566100787200gxrw,,,,,,,,
11,,instruction,causal-familiarisation,539176,male,41,English,United States of America,Right,R566100787200gxrw,,,,,,,,
11,,instruction,survey-multi-choice,630159,male,41,English,United States of America,Right,R566100787200gxrw,,"{""Q0"":"" To find out if the Gauge of Critical Moment (GCM) is activated or not"",""Q1"":"" A GCM becomes active if all of its inputs are active"",""Q2"":"" You should click on and rank all detectors that caused the activation of the GCM""}",,,,,,
11,,instruction,image-button-response,632885,male,41,English,United States of America,Right,R566100787200gxrw,,,,,,,,
11,,instruction,image-button-response,634988,male,41,English,United States of America,Right,R566100787200gxrw,,,,,,,,
11,,instruction,causal-graph2,637575,male,41,English,United States of America,Right,R566100787200gxrw,,,,,,,,
11,,instruction,causal-graph2,645955,male,41,English,United States of America,Right,R566100787200gxrw,1.0,,,,,,,
11,,instruction,causal-graph2,647304,male,41,English,United States of America,Right,R566100787200gxrw,,,,,,,,
11,,instruction,causal-graph2,658559,male,41,English,United States of America,Right,R566100787200gxrw,1.0,,,,,,,
11,,instruction,image-button-response,660453,male,41,English,United States of America,Right,R566100787200gxrw,,,,,,,,
11,,instruction,causal-familiarisation,670744,male,41,English,United States of America,Right,R566100787200gxrw,,,,,,,,
11,,instruction,survey-multi-choice,699124,male,41,English,United States of America,Right,R566100787200gxrw,,"{""Q0"":"" To find out if the Gauge of Critical Moment (GCM) is activated or not"",""Q1"":"" A GCM becomes active if all of its inputs are active"",""Q2"":"" You should click on only one detector in each network""}",,,,,,
11,,instruction,image-button-response,703074,male,41,English,United States of America,Right,R566100787200gxrw,,,,,,,,
11,,instruction,image-button-response,704095,male,41,English,United States of America,Right,R566100787200gxrw,,,,,,,,
11,,instruction,causal-graph2,705911,male,41,English,United States of America,Right,R566100787200gxrw,,,,,,,,
11,,instruction,causal-graph2,712195,male,41,English,United States of America,Right,R566100787200gxrw,1.0,,,,,,,
11,,instruction,causal-graph2,713253,male,41,English,United States of America,Right,R566100787200gxrw,,,,,,,,
11,,instruction,causal-graph2,733737,male,41,English,United States of America,Right,R566100787200gxrw,1.0,,,,,,,
11,,instruction,image-button-response,759412,male,41,English,United States of America,Right,R566100787200gxrw,,,,,,,,
11,,instruction,causal-familiarisation,772143,male,41,English,United States of America,Right,R566100787200gxrw,,,,,,,,
11,,instruction,survey-multi-choice,782674,male,41,English,United States of America,Right,R566100787200gxrw,,"{""Q0"":"" To find out if the Gauge of Critical Moment (GCM) is activated or not"",""Q1"":"" A GCM becomes active if all of its inputs are active"",""Q2"":"" You should assign a number to every detector in every network""}",,,,,,
11,,instruction,image-button-response,798428,male,41,English,United States of America,Right,R566100787200gxrw,,,,,,,,
11,,instruction,image-button-response,803617,male,41,English,United States of America,Right,R566100787200gxrw,,,,,,,,
11,,instruction,causal-graph2,811298,male,41,English,United States of America,Right,R566100787200gxrw,,,,,,,,
11,,instruction,causal-graph2,835379,male,41,English,United States of America,Right,R566100787200gxrw,1.0,,,,,,,
11,,instruction,causal-graph2,838777,male,41,English,United States of America,Right,R566100787200gxrw,,,,,,,,
11,,instruction,causal-graph2,862099,male,41,English,United States of America,Right,R566100787200gxrw,1.0,,,,,,,
11,,instruction,image-button-response,865503,male,41,English,United States of America,Right,R566100787200gxrw,,,,,,,,
11,,instruction,causal-familiarisation,877954,male,41,English,United States of America,Right,R566100787200gxrw,,,,,,,,
11,,instruction,survey-multi-choice,1174329,male,41,English,United States of America,Right,R566100787200gxrw,,"{""Q0"":"" To decide what caused the activation of the GCM"",""Q1"":"" A GCM becomes active if all of its inputs are active"",""Q2"":"" You should assign a number to every detector in every network""}",,,,,,
11,,instruction,image-button-response,1186773,male,41,English,United States of America,Right,R566100787200gxrw,,,,,,,,
11,,instruction,image-button-response,1187377,male,41,English,United States of America,Right,R566100787200gxrw,,,,,,,,
11,,instruction,causal-graph2,1188678,male,41,English,United States of America,Right,R566100787200gxrw,,,,,,,,
11,,instruction,causal-graph2,1194487,male,41,English,United States of America,Right,R566100787200gxrw,1.0,,,,,,,
11,,instruction,causal-graph2,1195337,male,41,English,United States of America,Right,R566100787200gxrw,,,,,,,,
11,,instruction,causal-graph2,1211993,male,41,English,United States of America,Right,R566100787200gxrw,1.0,,,,,,,
11,,instruction,image-button-response,1213108,male,41,English,United States of America,Right,R566100787200gxrw,,,,,,,,
11,,instruction,causal-familiarisation,1225009,male,41,English,United States of America,Right,R566100787200gxrw,,,,,,,,
11,,instruction,survey-multi-choice,1249072,male,41,English,United States of America,Right,R566100787200gxrw,,"{""Q0"":"" To find out if the Gauge of Critical Moment (GCM) is activated or not"",""Q1"":"" A GCM becomes active if all of its inputs are active"",""Q2"":"" You should click on only one detector in each network""}",,,,,,
11,,instruction,image-button-response,1253872,male,41,English,United States of America,Right,R566100787200gxrw,,,,,,,,
11,,instruction,image-button-response,1254544,male,41,English,United States of America,Right,R566100787200gxrw,,,,,,,,
11,,instruction,causal-graph2,1256126,male,41,English,United States of America,Right,R566100787200gxrw,,,,,,,,
11,,instruction,causal-graph2,1291988,male,41,English,United States of America,Right,R566100787200gxrw,1.0,,,,,,,
11,,instruction,causal-graph2,1292561,male,41,English,United States of America,Right,R566100787200gxrw,,,,,,,,
11,,instruction,causal-graph2,1306315,male,41,English,United States of America,Right,R566100787200gxrw,1.0,,,,,,,
11,,instruction,image-button-response,1306981,male,41,English,United States of America,Right,R566100787200gxrw,,,,,,,,
11,,instruction,causal-familiarisation,1320621,male,41,English,United States of America,Right,R566100787200gxrw,,,,,,,,
11,,instruction,survey-multi-choice,1331048,male,41,English,United States of America,Right,R566100787200gxrw,,"{""Q0"":"" To decide what caused the activation of the GCM"",""Q1"":"" A GCM becomes active if all of its inputs are active"",""Q2"":"" You should click on and rank all detectors that caused the activation of the GCM""}",,,,,,
11,,instruction,image-button-response,1356451,male,41,English,United States of America,Right,R566100787200gxrw,,,,,,,,
11,63600.675000110634,branch_RBME3,causal-graph2,1606811,male,41,English,United States of America,Right,R566100787200gxrw,2.0,,AND_Gate,Medium,Event,Bottom,Long,"[{""selected"":""node5"",""rank"":1},{""selected"":""node6"",""rank"":2},{""selected"":""node7"",""rank"":3},{""selected"":""node12"",""rank"":1},{""selected"":""node13"",""rank"":2},{""selected"":""node14"",""rank"":3},{""selected"":""node15"",""rank"":4}]"
11,12083.134999964388,chain_RS,causal-graph2,1622229,male,41,English,United States of America,Right,R566100787200gxrw,1.0,,Chain,Short,,,,"[{""selected"":""node7"",""rank"":1},{""selected"":""node8"",""rank"":2}]"
11,31353.514999849718,branch_RTLE1,causal-graph2,1656718,male,41,English,United States of America,Right,R566100787200gxrw,1.0,,AND_Gate,Long,Event,Top,Short,"[{""selected"":""node3"",""rank"":1},{""selected"":""node4"",""rank"":2},{""selected"":""node5"",""rank"":3},{""selected"":""node6"",""rank"":4},{""selected"":""node7"",""rank"":5},{""selected"":""node10"",""rank"":1},{""selected"":""node11"",""rank"":2},{""selected"":""node12"",""rank"":3},{""selected"":""node13"",""rank"":4},{""selected"":""node14"",""rank"":5},{""selected"":""node15"",""rank"":6}]"
11,22214.17500008829,branch_RBME1,causal-graph2,1683063,male,41,English,United States of America,Right,R566100787200gxrw,1.0,,AND_Gate,Medium,Event,Bottom,Short,"[{""selected"":""node5"",""rank"":1},{""selected"":""node6"",""rank"":2},{""selected"":""node7"",""rank"":3},{""selected"":""node12"",""rank"":1},{""selected"":""node13"",""rank"":2},{""selected"":""node14"",""rank"":3},{""selected"":""node15"",""rank"":4}]"
11,27833.695000037547,branch_RTLS,causal-graph2,1714609,male,41,English,United States of America,Right,R566100787200gxrw,1.0,,AND_Gate,Long,State,Top,,"[{""selected"":""node3"",""rank"":1},{""selected"":""node4"",""rank"":2},{""selected"":""node5"",""rank"":3},{""selected"":""node6"",""rank"":4},{""selected"":""node7"",""rank"":5},{""selected"":""node10"",""rank"":1},{""selected"":""node11"",""rank"":2},{""selected"":""node12"",""rank"":3},{""selected"":""node13"",""rank"":4},{""selected"":""node14"",""rank"":5},{""selected"":""node15"",""rank"":6}]"
11,16824.749999912456,branch_RTSE3,causal-graph2,1734327,male,41,English,United States of America,Right,R566100787200gxrw,1.0,,AND_Gate,Short,Event,Top,Long,"[{""selected"":""node7"",""rank"":1},{""selected"":""node14"",""rank"":1},{""selected"":""node15"",""rank"":2}]"
11,20132.254999829456,chain_RL,causal-graph2,1757929,male,41,English,United States of America,Right,R566100787200gxrw,1.0,,Chain,Long,,,,"[{""selected"":""node3"",""rank"":1},{""selected"":""node4"",""rank"":2},{""selected"":""node5"",""rank"":3},{""selected"":""node6"",""rank"":4},{""selected"":""node7"",""rank"":5},{""selected"":""node8"",""rank"":5}]"
11,51297.06499981693,branch_RTMS,causal-graph2,2165393,male,41,English,United States of America,Right,R566100787200gxrw,1.0,,AND_Gate,Medium,State,Top,,"[{""selected"":""node5"",""rank"":1},{""selected"":""node6"",""rank"":2},{""selected"":""node7"",""rank"":3},{""selected"":""node12"",""rank"":1},{""selected"":""node13"",""rank"":2},{""selected"":""node14"",""rank"":3},{""selected"":""node15"",""rank"":4}]"
11,23590.42999986559,chain_RM,causal-graph2,2191814,male,41,English,United States of America,Right,R566100787200gxrw,1.0,,Chain,Medium,,,,"[{""selected"":""node5"",""rank"":1},{""selected"":""node6"",""rank"":2},{""selected"":""node7"",""rank"":3},{""selected"":""node8"",""rank"":4}]"
11,37312.954999972135,branch_RBME2,causal-graph2,2231967,male,41,English,United States of America,Right,R566100787200gxrw,1.0,,AND_Gate,Medium,Event,Bottom,Medium,"[{""selected"":""node5"",""rank"":2},{""selected"":""node6"",""rank"":3},{""selected"":""node7"",""rank"":6},{""selected"":""node12"",""rank"":1},{""selected"":""node13"",""rank"":4},{""selected"":""node14"",""rank"":5},{""selected"":""node15"",""rank"":7}]"
11,12538.184999953955,branch_RTSE2,causal-graph2,2247435,male,41,English,United States of America,Right,R566100787200gxrw,1.0,,AND_Gate,Short,Event,Top,Medium,"[{""selected"":""node7"",""rank"":1},{""selected"":""node14"",""rank"":2},{""selected"":""node15"",""rank"":3}]"
11,64018.74000020325,branch_RBLE2,causal-graph2,2314044,male,41,English,United States of America,Right,R566100787200gxrw,1.0,,AND_Gate,Long,Event,Bottom,Medium,"[{""selected"":""node3"",""rank"":6},{""selected"":""node4"",""rank"":7},{""selected"":""node5"",""rank"":8},{""selected"":""node6"",""rank"":9},{""selected"":""node7"",""rank"":10},{""selected"":""node10"",""rank"":1},{""selected"":""node11"",""rank"":2},{""selected"":""node12"",""rank"":3},{""selected"":""node13"",""rank"":4},{""selected"":""node14"",""rank"":5},{""selected"":""node15"",""rank"":11}]"
11,10422.370000043884,branch_RBSS,causal-graph2,2327372,male,41,English,United States of America,Right,R566100787200gxrw,1.0,,AND_Gate,Short,State,Bottom,,"[{""selected"":""node7"",""rank"":2},{""selected"":""node14"",""rank"":1},{""selected"":""node15"",""rank"":3}]"
11,650062.9849999677,branch_RTLE3,causal-graph2,2980416,male,41,English,United States of America,Right,R566100787200gxrw,1.0,,AND_Gate,Long,Event,Top,Long,"[{""selected"":""node3"",""rank"":6},{""selected"":""node4"",""rank"":7},{""selected"":""node5"",""rank"":8},{""selected"":""node6"",""rank"":9},{""selected"":""node7"",""rank"":10},{""selected"":""node10"",""rank"":1},{""selected"":""node11"",""rank"":2},{""selected"":""node12"",""rank"":3},{""selected"":""node13"",""rank"":4},{""selected"":""node14"",""rank"":5},{""selected"":""node15"",""rank"":11}]"
11,11805.989999789743,branch_RBSE1,causal-graph2,3511106,male,41,English,United States of America,Right,R566100787200gxrw,2.0,,AND_Gate,Short,Event,Bottom,Short,"[{""selected"":""node7"",""rank"":2},{""selected"":""node14"",""rank"":1},{""selected"":""node15"",""rank"":3}]"
11,,instruction,image-button-response,3515670,male,41,English,United States of America,Right,R566100787200gxrw,,,,,,,,
11,2858.7150000967085,comment,survey-text,3518547,male,41,English,United States of America,Right,R566100787200gxrw,,"{""Q0"":""""}",,,,,,
12,,instruction,image-button-response,775320,male,28,English,United States of America,Left,R563258127530gxrw,,,,,,,,
12,,instruction,causal-graph2,780266,male,28,English,United States of America,Left,R563258127530gxrw,,,,,,,,
12,,instruction,causal-graph2,801913,male,28,English,United States of America,Left,R563258127530gxrw,2.0,,,,,,,
12,,instruction,causal-graph2,804200,male,28,English,United States of America,Left,R563258127530gxrw,,,,,,,,
12,,instruction,causal-graph2,821816,male,28,English,United States of America,Left,R563258127530gxrw,1.0,,,,,,,
12,,instruction,image-button-response,823493,male,28,English,United States of America,Left,R563258127530gxrw,,,,,,,,
12,,instruction,causal-familiarisation,890752,male,28,English,United States of America,Left,R563258127530gxrw,,,,,,,,
12,,instruction,survey-multi-choice,896991,male,28,English,United States of America,Left,R563258127530gxrw,,"{""Q0"":"" To find out if the Gauge of Critical Moment (GCM) is activated or not"",""Q1"":"" A GCM becomes active if at least one of its inputs is active"",""Q2"":"" You should click on only one detector in each network""}",,,,,,
12,,instruction,image-button-response,900256,male,28,English,United States of America,Left,R563258127530gxrw,,,,,,,,
12,,instruction,image-button-response,903259,male,28,English,United States of America,Left,R563258127530gxrw,,,,,,,,
12,,instruction,causal-graph2,906669,male,28,English,United States of America,Left,R563258127530gxrw,,,,,,,,
12,,instruction,causal-graph2,968582,male,28,English,United States of America,Left,R563258127530gxrw,1.0,,,,,,,
12,,instruction,causal-graph2,970321,male,28,English,United States of America,Left,R563258127530gxrw,,,,,,,,
12,,instruction,causal-graph2,985982,male,28,English,United States of America,Left,R563258127530gxrw,1.0,,,,,,,
12,,instruction,image-button-response,987532,male,28,English,United States of America,Left,R563258127530gxrw,,,,,,,,
12,,instruction,causal-familiarisation,1055665,male,28,English,United States of America,Left,R563258127530gxrw,,,,,,,,
12,,instruction,survey-multi-choice,1102288,male,28,English,United States of America,Left,R563258127530gxrw,,"{""Q0"":"" To decide what caused the activation of the GCM"",""Q1"":"" A GCM becomes active if at least one of its inputs is active"",""Q2"":"" You should click on only one detector in each network""}",,,,,,
12,,instruction,image-button-response,1104476,male,28,English,United States of America,Left,R563258127530gxrw,,,,,,,,
12,,instruction,image-button-response,1115350,male,28,English,United States of America,Left,R563258127530gxrw,,,,,,,,
12,,instruction,causal-graph2,1116908,male,28,English,United States of America,Left,R563258127530gxrw,,,,,,,,
12,,instruction,causal-graph2,1123815,male,28,English,United States of America,Left,R563258127530gxrw,1.0,,,,,,,
12,,instruction,causal-graph2,1125331,male,28,English,United States of America,Left,R563258127530gxrw,,,,,,,,
12,,instruction,causal-graph2,1151651,male,28,English,United States of America,Left,R563258127530gxrw,1.0,,,,,,,
