subject_id,stimulus,trial_type,time_elapsed,gender,age,language,country,sampling,turkcode,nb_of_run,rt,responses,stim_type,rolled_OR_unrolled,A_branch_loc,A_detectors,state_OR_event,state_branch,root_1st,imdt_2nd,node_selected
1,instruction,causal-graph1,6362,female,31,"English, Indonesian",United States of America,Right,R565304137610gxrw,,,,,,,,,,,,
1,instruction,causal-graph1,11076,female,31,"English, Indonesian",United States of America,Right,R565304137610gxrw,,,,,,,,,,,,
1,instruction,causal-graph1,23724,female,31,"English, Indonesian",United States of America,Right,R565304137610gxrw,1.0,,,,,,,,,,,
1,instruction,causal-graph1,29399,female,31,"English, Indonesian",United States of America,Right,R565304137610gxrw,,,,,,,,,,,,
1,instruction,causal-graph1,40590,female,31,"English, Indonesian",United States of America,Right,R565304137610gxrw,1.0,,,,,,,,,,,
1,instruction,causal-graph1,49595,female,31,"English, Indonesian",United States of America,Right,R565304137610gxrw,,,,,,,,,,,,
1,instruction,survey-multi-choice,70378,female,31,"English, Indonesian",United States of America,Right,R565304137610gxrw,,,"{""Q0"":"" To decide what caused the activation of G"",""Q1"":"" A detector becomes active if it absorbs a radioactive particle or receives input from an active detector"",""Q2"":"" G becomes active if all of its inputs are active""}",,,,,,,,,
1,instruction,causal-graph1,76268,female,31,"English, Indonesian",United States of America,Right,R565304137610gxrw,,,,,,,,,,,,
1,UAAS_RT,causal-graph1,98670,female,31,"English, Indonesian",United States of America,Right,R565304137610gxrw,1.0,19950.759999919686,,AND_Gate,Unrolled,Top,Squares,Event,,A,A,nodeA7
1,UABS_RB,causal-graph1,115311,female,31,"English, Indonesian",United States of America,Right,R565304137610gxrw,1.0,14289.954999927431,,AND_Gate,Unrolled,Bottom,Squares,Event,,A,B,nodeA41
1,UBBS_RT,causal-graph1,139833,female,31,"English, Indonesian",United States of America,Right,R565304137610gxrw,2.0,12181.330000050366,,AND_Gate,Unrolled,Top,Squares,Event,,B,B,nodeB6
1,UAS_RB,causal-graph1,156311,female,31,"English, Indonesian",United States of America,Right,R565304137610gxrw,1.0,13457.560000009837,,AND_Gate,Unrolled,Bottom,Squares,State,A,,B,nodeA41
1,chainS_R,causal-graph1,169821,female,31,"English, Indonesian",United States of America,Right,R565304137610gxrw,1.0,10690.350000048056,,ChainS,,,,,,,,nodeB9
1,UBS_RB,causal-graph1,184936,female,31,"English, Indonesian",United States of America,Right,R565304137610gxrw,1.0,12429.98000001535,,AND_Gate,Unrolled,Bottom,Squares,State,B,,A,nodeB19
1,UBAS_RT,causal-graph1,212073,female,31,"English, Indonesian",United States of America,Right,R565304137610gxrw,2.0,10832.470000023022,,AND_Gate,Unrolled,Top,Squares,Event,,B,A,nodeB14
1,instruction,causal-graph1,215019,female,31,"English, Indonesian",United States of America,Right,R565304137610gxrw,,,,,,,,,,,,
1,comment,survey-text,226175,female,31,"English, Indonesian",United States of America,Right,R565304137610gxrw,,11139.700000057926,"{""Q0"":""""}",,,,,,,,,
2,instruction,causal-graph1,36742,male,31,English,United States of America,Left,R568037847200gxrw,,,,,,,,,,,,
2,instruction,causal-graph1,52517,male,31,English,United States of America,Left,R568037847200gxrw,,,,,,,,,,,,
2,instruction,causal-graph1,1270817,male,31,English,United States of America,Left,R568037847200gxrw,2.0,,,,,,,,,,,
2,instruction,causal-graph1,1301167,male,31,English,United States of America,Left,R568037847200gxrw,,,,,,,,,,,,
2,instruction,causal-graph1,1402862,male,31,English,United States of America,Left,R568037847200gxrw,1.0,,,,,,,,,,,
2,instruction,causal-graph1,1424045,male,31,English,United States of America,Left,R568037847200gxrw,,,,,,,,,,,,
2,instruction,survey-multi-choice,1491462,male,31,English,United States of America,Left,R568037847200gxrw,,,"{""Q0"":"" To decide what caused the activation of G"",""Q1"":"" A detector becomes active if it absorbs a radioactive particle or receives input from an active detector"",""Q2"":"" G becomes active if all of its inputs are active""}",,,,,,,,,
2,instruction,causal-graph1,1494542,male,31,English,United States of America,Left,R568037847200gxrw,,,,,,,,,,,,
2,UAS_LB,causal-graph1,1520672,male,31,English,United States of America,Left,R568037847200gxrw,1.0,22205.620000008028,,AND_Gate,Unrolled,Bottom,Squares,State,A,,B,nodeA27
2,UBS_LT,causal-graph1,1539853,male,31,English,United States of America,Left,R568037847200gxrw,1.0,17773.830000005433,,AND_Gate,Unrolled,Top,Squares,State,B,,A,nodeB8
2,UAAS_LB,causal-graph1,1554069,male,31,English,United States of America,Left,R568037847200gxrw,1.0,11323.835000002991,,AND_Gate,Unrolled,Bottom,Squares,Event,,A,A,nodeA7
2,UBBS_LB,causal-graph1,1566445,male,31,English,United States of America,Left,R568037847200gxrw,1.0,10251.860000003828,,AND_Gate,Unrolled,Bottom,Squares,Event,,B,B,nodeB2
2,UBAS_LT,causal-graph1,1583077,male,31,English,United States of America,Left,R568037847200gxrw,1.0,10636.100000003353,,AND_Gate,Unrolled,Top,Squares,Event,,B,A,nodeB4
2,chainS_L,causal-graph1,1594925,male,31,English,United States of America,Left,R568037847200gxrw,1.0,8851.390000010608,,ChainS,,,,,,,,nodeB9
2,UABS_LT,causal-graph1,1608925,male,31,English,United States of America,Left,R568037847200gxrw,1.0,12453.804999997374,,AND_Gate,Unrolled,Top,Squares,Event,,A,B,nodeA7
2,instruction,causal-graph1,1611980,male,31,English,United States of America,Left,R568037847200gxrw,,,,,,,,,,,,
2,comment,survey-text,1614476,male,31,English,United States of America,Left,R568037847200gxrw,,2485.87000000407,"{""Q0"":""""}",,,,,,,,,
3,instruction,causal-graph1,7767,male,47,english,United States of America,Right,R567007587810gxrw,,,,,,,,,,,,
3,instruction,causal-graph1,14646,male,47,english,United States of America,Right,R567007587810gxrw,,,,,,,,,,,,
3,instruction,causal-graph1,40368,male,47,english,United States of America,Right,R567007587810gxrw,1.0,,,,,,,,,,,
3,instruction,causal-graph1,51568,male,47,english,United States of America,Right,R567007587810gxrw,,,,,,,,,,,,
3,instruction,causal-graph1,71336,male,47,english,United States of America,Right,R567007587810gxrw,1.0,,,,,,,,,,,
3,instruction,causal-graph1,136610,male,47,english,United States of America,Right,R567007587810gxrw,,,,,,,,,,,,
3,instruction,survey-multi-choice,172423,male,47,english,United States of America,Right,R567007587810gxrw,,,"{""Q0"":"" To decide what caused the activation of G"",""Q1"":"" A detector becomes active if it absorbs a radioactive particle or receives input from an active detector"",""Q2"":"" G becomes active if all of its inputs are active""}",,,,,,,,,
3,instruction,causal-graph1,175867,male,47,english,United States of America,Right,R567007587810gxrw,,,,,,,,,,,,
3,chainS_R,causal-graph1,197548,male,47,english,United States of America,Right,R567007587810gxrw,1.0,18117.0,,ChainS,,,,,,,,nodeB9
3,UBBS_RT,causal-graph1,235142,male,47,english,United States of America,Right,R567007587810gxrw,1.0,28741.0,,AND_Gate,Unrolled,Top,Squares,Event,,B,B,nodeB2
3,UBAS_RB,causal-graph1,254558,male,47,english,United States of America,Right,R567007587810gxrw,1.0,16028.0,,AND_Gate,Unrolled,Bottom,Squares,Event,,B,A,nodeA25
3,UAS_RB,causal-graph1,289127,male,47,english,United States of America,Right,R567007587810gxrw,2.0,14004.0,,AND_Gate,Unrolled,Bottom,Squares,State,A,,B,nodeB8
3,UBS_RB,causal-graph1,308328,male,47,english,United States of America,Right,R567007587810gxrw,1.0,16613.0,,AND_Gate,Unrolled,Bottom,Squares,State,B,,A,nodeA30
3,UABS_RB,causal-graph1,335601,male,47,english,United States of America,Right,R567007587810gxrw,1.0,14915.0,,AND_Gate,Unrolled,Bottom,Squares,Event,,A,B,nodeB7
3,UAAS_RT,causal-graph1,358657,male,47,english,United States of America,Right,R567007587810gxrw,1.0,14407.0,,AND_Gate,Unrolled,Top,Squares,Event,,A,A,nodeA7
3,instruction,causal-graph1,361482,male,47,english,United States of America,Right,R567007587810gxrw,,,,,,,,,,,,
3,comment,survey-text,369675,male,47,english,United States of America,Right,R567007587810gxrw,,8187.0,"{""Q0"":""""}",,,,,,,,,
4,instruction,causal-graph1,31420,male,25,English,United States of America,Left,R562293107890gxrw,,,,,,,,,,,,
4,instruction,causal-graph1,41323,male,25,English,United States of America,Left,R562293107890gxrw,,,,,,,,,,,,
4,instruction,causal-graph1,82943,male,25,English,United States of America,Left,R562293107890gxrw,2.0,,,,,,,,,,,
4,instruction,causal-graph1,234867,male,25,English,United States of America,Left,R562293107890gxrw,,,,,,,,,,,,
4,instruction,causal-graph1,250616,male,25,English,United States of America,Left,R562293107890gxrw,1.0,,,,,,,,,,,
4,instruction,causal-graph1,256563,male,25,English,United States of America,Left,R562293107890gxrw,,,,,,,,,,,,
4,instruction,survey-multi-choice,283603,male,25,English,United States of America,Left,R562293107890gxrw,,,"{""Q0"":"" To decide what caused the activation of G"",""Q1"":"" A detector becomes active if it absorbs a radioactive particle or receives input from an active detector"",""Q2"":"" G becomes active if all of its inputs are active""}",,,,,,,,,
4,instruction,causal-graph1,285559,male,25,English,United States of America,Left,R562293107890gxrw,,,,,,,,,,,,
4,chainS_L,causal-graph1,317590,male,25,English,United States of America,Left,R562293107890gxrw,2.0,13172.380000003614,,ChainS,,,,,,,,nodeB19
4,UAAS_LT,causal-graph1,355809,male,25,English,United States of America,Left,R562293107890gxrw,2.0,12532.130000006873,,AND_Gate,Unrolled,Top,Squares,Event,,A,A,nodeA7
4,UBAS_LT,causal-graph1,371224,male,25,English,United States of America,Left,R562293107890gxrw,1.0,13785.459999984598,,AND_Gate,Unrolled,Top,Squares,Event,,B,A,nodeB4
4,UAS_LT,causal-graph1,396023,male,25,English,United States of America,Left,R562293107890gxrw,1.0,23058.359999966342,,AND_Gate,Unrolled,Top,Squares,State,A,,B,nodeB19
4,UABS_LB,causal-graph1,418502,male,25,English,United States of America,Left,R562293107890gxrw,1.0,21011.404999997467,,AND_Gate,Unrolled,Bottom,Squares,Event,,A,B,nodeB19
4,UBBS_LB,causal-graph1,452253,male,25,English,United States of America,Left,R562293107890gxrw,2.0,22344.200000050478,,AND_Gate,Unrolled,Bottom,Squares,Event,,B,B,nodeB2
4,UBS_LT,causal-graph1,465439,male,25,English,United States of America,Left,R562293107890gxrw,1.0,10957.3649999802,,AND_Gate,Unrolled,Top,Squares,State,B,,A,nodeA30
4,instruction,causal-graph1,465509,male,25,English,United States of America,Left,R562293107890gxrw,,,,,,,,,,,,
4,comment,survey-text,506862,male,25,English,United States of America,Left,R562293107890gxrw,,41257.97000003513,"{""Q0"":""I was a little confused when you asked which detector caused G to activate, as each detector can be activated by the detector before it. ""}",,,,,,,,,
5,instruction,causal-graph1,11543,female,33,English,United States of America,Right,R564425597290gxrw,,,,,,,,,,,,
5,instruction,causal-graph1,18686,female,33,English,United States of America,Right,R564425597290gxrw,,,,,,,,,,,,
5,instruction,causal-graph1,46049,female,33,English,United States of America,Right,R564425597290gxrw,1.0,,,,,,,,,,,
5,instruction,causal-graph1,54685,female,33,English,United States of America,Right,R564425597290gxrw,,,,,,,,,,,,
5,instruction,causal-graph1,71583,female,33,English,United States of America,Right,R564425597290gxrw,1.0,,,,,,,,,,,
5,instruction,causal-graph1,121646,female,33,English,United States of America,Right,R564425597290gxrw,,,,,,,,,,,,
5,instruction,survey-multi-choice,144450,female,33,English,United States of America,Right,R564425597290gxrw,,,"{""Q0"":"" To decide what caused the activation of G"",""Q1"":"" A detector becomes active if it absorbs a radioactive particle or receives input from an active detector"",""Q2"":"" G becomes active if all of its inputs are active""}",,,,,,,,,
5,instruction,causal-graph1,161347,female,33,English,United States of America,Right,R564425597290gxrw,,,,,,,,,,,,
5,UBAS_RT,causal-graph1,204739,female,33,English,United States of America,Right,R564425597290gxrw,1.0,41070.92999998713,,AND_Gate,Unrolled,Top,Squares,Event,,B,A,nodeB4
5,UAS_RT,causal-graph1,221648,female,33,English,United States of America,Right,R564425597290gxrw,1.0,12315.000000002328,,AND_Gate,Unrolled,Top,Squares,State,A,,B,nodeA27
5,chainS_R,causal-graph1,233696,female,33,English,United States of America,Right,R564425597290gxrw,1.0,8726.074999984121,,ChainS,,,,,,,,nodeB9
5,UABS_RB,causal-graph1,297287,female,33,English,United States of America,Right,R564425597290gxrw,1.0,17614.944999979343,,AND_Gate,Unrolled,Bottom,Squares,Event,,A,B,nodeB7
5,UBS_RB,causal-graph1,324118,female,33,English,United States of America,Right,R564425597290gxrw,1.0,19886.62000000477,,AND_Gate,Unrolled,Bottom,Squares,State,B,,A,nodeA30
5,UBBS_RT,causal-graph1,355663,female,33,English,United States of America,Right,R564425597290gxrw,1.0,27907.325000007404,,AND_Gate,Unrolled,Top,Squares,Event,,B,B,nodeA37
5,UAAS_RB,causal-graph1,368713,female,33,English,United States of America,Right,R564425597290gxrw,1.0,10975.60499998508,,AND_Gate,Unrolled,Bottom,Squares,Event,,A,A,nodeB7
5,instruction,causal-graph1,371368,female,33,English,United States of America,Right,R564425597290gxrw,,,,,,,,,,,,
5,comment,survey-text,374274,female,33,English,United States of America,Right,R564425597290gxrw,,2879.6300000103656,"{""Q0"":""""}",,,,,,,,,
6,instruction,causal-graph1,4146,female,19,english,United States of America,Right,R566015437170gxrw,,,,,,,,,,,,
6,instruction,causal-graph1,6792,female,19,english,United States of America,Right,R566015437170gxrw,,,,,,,,,,,,
6,instruction,causal-graph1,16747,female,19,english,United States of America,Right,R566015437170gxrw,1.0,,,,,,,,,,,
6,instruction,causal-graph1,21971,female,19,english,United States of America,Right,R566015437170gxrw,,,,,,,,,,,,
6,instruction,causal-graph1,32337,female,19,english,United States of America,Right,R566015437170gxrw,1.0,,,,,,,,,,,
6,instruction,causal-graph1,36370,female,19,english,United States of America,Right,R566015437170gxrw,,,,,,,,,,,,
6,instruction,survey-multi-choice,54953,female,19,english,United States of America,Right,R566015437170gxrw,,,"{""Q0"":"" To decide what caused the activation of G"",""Q1"":"" A detector becomes active if it absorbs a radioactive particle"",""Q2"":"" G becomes active if all of its inputs are active""}",,,,,,,,,
6,instruction,causal-graph1,57342,female,19,english,United States of America,Right,R566015437170gxrw,,,,,,,,,,,,
6,instruction,causal-graph1,58789,female,19,english,United States of America,Right,R566015437170gxrw,,,,,,,,,,,,
6,instruction,causal-graph1,60046,female,19,english,United States of America,Right,R566015437170gxrw,,,,,,,,,,,,
6,instruction,causal-graph1,73153,female,19,english,United States of America,Right,R566015437170gxrw,1.0,,,,,,,,,,,
6,instruction,causal-graph1,80384,female,19,english,United States of America,Right,R566015437170gxrw,,,,,,,,,,,,
6,instruction,causal-graph1,87305,female,19,english,United States of America,Right,R566015437170gxrw,1.0,,,,,,,,,,,
6,instruction,causal-graph1,91508,female,19,english,United States of America,Right,R566015437170gxrw,,,,,,,,,,,,
6,instruction,survey-multi-choice,106861,female,19,english,United States of America,Right,R566015437170gxrw,,,"{""Q0"":"" To decide what caused the activation of G"",""Q1"":"" A detector becomes active if it absorbs a radioactive particle or receives input from an active detector"",""Q2"":"" G becomes active if all of its inputs are active""}",,,,,,,,,
6,instruction,causal-graph1,107999,female,19,english,United States of America,Right,R566015437170gxrw,,,,,,,,,,,,
6,UAAS_RT,causal-graph1,134653,female,19,english,United States of America,Right,R566015437170gxrw,2.0,11361.475000012431,,AND_Gate,Unrolled,Top,Squares,Event,,A,A,nodeA19
6,UABS_RT,causal-graph1,148488,female,19,english,United States of America,Right,R566015437170gxrw,1.0,11968.060000013791,,AND_Gate,Unrolled,Top,Squares,Event,,A,B,nodeA40
6,UBBS_RT,causal-graph1,158831,female,19,english,United States of America,Right,R566015437170gxrw,1.0,9263.489999982994,,AND_Gate,Unrolled,Top,Squares,Event,,B,B,nodeB7
6,UBS_RT,causal-graph1,171965,female,19,english,United States of America,Right,R566015437170gxrw,1.0,11788.795000000393,,AND_Gate,Unrolled,Top,Squares,State,B,,A,nodeB20
6,chainS_R,causal-graph1,181965,female,19,english,United States of America,Right,R566015437170gxrw,1.0,8505.340000003343,,ChainS,,,,,,,,nodeB9
6,UBAS_RB,causal-graph1,192949,female,19,english,United States of America,Right,R566015437170gxrw,1.0,9837.330000009388,,AND_Gate,Unrolled,Bottom,Squares,Event,,B,A,nodeB14
6,UAS_RT,causal-graph1,206959,female,19,english,United States of America,Right,R566015437170gxrw,1.0,12747.789999993984,,AND_Gate,Unrolled,Top,Squares,State,A,,B,nodeA41
6,instruction,causal-graph1,208219,female,19,english,United States of America,Right,R566015437170gxrw,,,,,,,,,,,,
6,comment,survey-text,210633,female,19,english,United States of America,Right,R566015437170gxrw,,2385.680000006687,"{""Q0"":""""}",,,,,,,,,
7,instruction,causal-graph1,6637,female,64,English,United States of America,Left,R565225457430gxrw,,,,,,,,,,,,
7,instruction,causal-graph1,11927,female,64,English,United States of America,Left,R565225457430gxrw,,,,,,,,,,,,
7,instruction,causal-graph1,35232,female,64,English,United States of America,Left,R565225457430gxrw,2.0,,,,,,,,,,,
7,instruction,causal-graph1,44257,female,64,English,United States of America,Left,R565225457430gxrw,,,,,,,,,,,,
7,instruction,causal-graph1,57131,female,64,English,United States of America,Left,R565225457430gxrw,1.0,,,,,,,,,,,
7,instruction,causal-graph1,62079,female,64,English,United States of America,Left,R565225457430gxrw,,,,,,,,,,,,
7,instruction,survey-multi-choice,77758,female,64,English,United States of America,Left,R565225457430gxrw,,,"{""Q0"":"" To decide what caused the activation of G"",""Q1"":"" A detector becomes active if it absorbs a radioactive particle"",""Q2"":"" G becomes active if all of its inputs are active""}",,,,,,,,,
7,instruction,causal-graph1,79973,female,64,English,United States of America,Left,R565225457430gxrw,,,,,,,,,,,,
7,instruction,causal-graph1,82603,female,64,English,United States of America,Left,R565225457430gxrw,,,,,,,,,,,,
7,instruction,causal-graph1,85133,female,64,English,United States of America,Left,R565225457430gxrw,,,,,,,,,,,,
7,instruction,causal-graph1,102806,female,64,English,United States of America,Left,R565225457430gxrw,1.0,,,,,,,,,,,
7,instruction,causal-graph1,109538,female,64,English,United States of America,Left,R565225457430gxrw,,,,,,,,,,,,
7,instruction,causal-graph1,119802,female,64,English,United States of America,Left,R565225457430gxrw,1.0,,,,,,,,,,,
7,instruction,causal-graph1,126237,female,64,English,United States of America,Left,R565225457430gxrw,,,,,,,,,,,,
7,instruction,survey-multi-choice,145018,female,64,English,United States of America,Left,R565225457430gxrw,,,"{""Q0"":"" To decide what caused the activation of G"",""Q1"":"" A detector becomes active if it absorbs a radioactive particle or receives input from an active detector"",""Q2"":"" G becomes active if all of its inputs are active""}",,,,,,,,,
7,instruction,causal-graph1,147634,female,64,English,United States of America,Left,R565225457430gxrw,,,,,,,,,,,,
7,UAS_LB,causal-graph1,169361,female,64,English,United States of America,Left,R565225457430gxrw,1.0,19507.57000001613,,AND_Gate,Unrolled,Bottom,Squares,State,A,,B,nodeA27
7,UBBS_LB,causal-graph1,183488,female,64,English,United States of America,Left,R565225457430gxrw,1.0,11984.040000010284,,AND_Gate,Unrolled,Bottom,Squares,Event,,B,B,nodeB2
7,UBAS_LB,causal-graph1,198160,female,64,English,United States of America,Left,R565225457430gxrw,1.0,12516.135000041688,,AND_Gate,Unrolled,Bottom,Squares,Event,,B,A,nodeA25
7,chainS_L,causal-graph1,214832,female,64,English,United States of America,Left,R565225457430gxrw,1.0,12404.189999913797,,ChainS,,,,,,,,nodeB9
7,UBS_LB,causal-graph1,228553,female,64,English,United States of America,Left,R565225457430gxrw,1.0,11653.400000068359,,AND_Gate,Unrolled,Bottom,Squares,State,B,,A,nodeA30
7,UABS_LB,causal-graph1,248056,female,64,English,United States of America,Left,R565225457430gxrw,1.0,16938.319999957457,,AND_Gate,Unrolled,Bottom,Squares,Event,,A,B,nodeB7
7,UAAS_LB,causal-graph1,264029,female,64,English,United States of America,Left,R565225457430gxrw,1.0,13465.314999921247,,AND_Gate,Unrolled,Bottom,Squares,Event,,A,A,nodeA41
7,instruction,causal-graph1,266087,female,64,English,United States of America,Left,R565225457430gxrw,,,,,,,,,,,,
7,comment,survey-text,268869,female,64,English,United States of America,Left,R565225457430gxrw,,2769.670000066981,"{""Q0"":""""}",,,,,,,,,
8,instruction,causal-graph1,5736,female,25,English,United States of America,Left,R564891937510gxrw,,,,,,,,,,,,
8,instruction,causal-graph1,14027,female,25,English,United States of America,Left,R564891937510gxrw,,,,,,,,,,,,
8,instruction,causal-graph1,36392,female,25,English,United States of America,Left,R564891937510gxrw,2.0,,,,,,,,,,,
8,instruction,causal-graph1,54860,female,25,English,United States of America,Left,R564891937510gxrw,,,,,,,,,,,,
8,instruction,causal-graph1,80251,female,25,English,United States of America,Left,R564891937510gxrw,1.0,,,,,,,,,,,
8,instruction,causal-graph1,89792,female,25,English,United States of America,Left,R564891937510gxrw,,,,,,,,,,,,
8,instruction,survey-multi-choice,326053,female,25,English,United States of America,Left,R564891937510gxrw,,,"{""Q0"":"" To decide what caused the activation of G"",""Q1"":"" A detector becomes active if it receives input from an active detector"",""Q2"":"" G becomes active if all of its inputs are active""}",,,,,,,,,
8,instruction,causal-graph1,329334,female,25,English,United States of America,Left,R564891937510gxrw,,,,,,,,,,,,
8,instruction,causal-graph1,332149,female,25,English,United States of America,Left,R564891937510gxrw,,,,,,,,,,,,
8,instruction,causal-graph1,334798,female,25,English,United States of America,Left,R564891937510gxrw,,,,,,,,,,,,
8,instruction,causal-graph1,355134,female,25,English,United States of America,Left,R564891937510gxrw,1.0,,,,,,,,,,,
8,instruction,causal-graph1,362468,female,25,English,United States of America,Left,R564891937510gxrw,,,,,,,,,,,,
8,instruction,causal-graph1,377234,female,25,English,United States of America,Left,R564891937510gxrw,1.0,,,,,,,,,,,
8,instruction,causal-graph1,390778,female,25,English,United States of America,Left,R564891937510gxrw,,,,,,,,,,,,
8,instruction,survey-multi-choice,414375,female,25,English,United States of America,Left,R564891937510gxrw,,,"{""Q0"":"" To decide what caused the activation of G"",""Q1"":"" A detector becomes active if it absorbs a radioactive particle or receives input from an active detector"",""Q2"":"" G becomes active if all of its inputs are active""}",,,,,,,,,
8,instruction,causal-graph1,1083193,female,25,English,United States of America,Left,R564891937510gxrw,,,,,,,,,,,,
8,UABS_LT,causal-graph1,1107650,female,25,English,United States of America,Left,R564891937510gxrw,1.0,21732.42000000039,,AND_Gate,Unrolled,Top,Squares,Event,,A,B,nodeA7
8,UBBS_LT,causal-graph1,1125849,female,25,English,United States of America,Left,R564891937510gxrw,1.0,11055.775000000604,,AND_Gate,Unrolled,Top,Squares,Event,,B,B,nodeB2
8,UAAS_LB,causal-graph1,1141401,female,25,English,United States of America,Left,R564891937510gxrw,1.0,14431.979999999285,,AND_Gate,Unrolled,Bottom,Squares,Event,,A,A,nodeA7
8,chainS_L,causal-graph1,1158758,female,25,English,United States of America,Left,R564891937510gxrw,1.0,13427.315000000877,,ChainS,,,,,,,,nodeB9
8,UAS_LT,causal-graph1,1172946,female,25,English,United States of America,Left,R564891937510gxrw,1.0,13032.25500000012,,AND_Gate,Unrolled,Top,Squares,State,A,,B,nodeA27
8,UBAS_LB,causal-graph1,1186523,female,25,English,United States of America,Left,R564891937510gxrw,1.0,11963.514999999432,,AND_Gate,Unrolled,Bottom,Squares,Event,,B,A,nodeB4
8,UBS_LB,causal-graph1,1202904,female,25,English,United States of America,Left,R564891937510gxrw,1.0,14734.590000000084,,AND_Gate,Unrolled,Bottom,Squares,State,B,,A,nodeB8
8,instruction,causal-graph1,1205462,female,25,English,United States of America,Left,R564891937510gxrw,,,,,,,,,,,,
8,comment,survey-text,1212827,female,25,English,United States of America,Left,R564891937510gxrw,,7342.464999999851,"{""Q0"":""""}",,,,,,,,,
9,instruction,causal-graph1,7411,female,35,english,United States of America,Right,R564914717360gxrw,,,,,,,,,,,,
9,instruction,causal-graph1,13768,female,35,english,United States of America,Right,R564914717360gxrw,,,,,,,,,,,,
9,instruction,causal-graph1,33127,female,35,english,United States of America,Right,R564914717360gxrw,2.0,,,,,,,,,,,
9,instruction,causal-graph1,62616,female,35,english,United States of America,Right,R564914717360gxrw,,,,,,,,,,,,
9,instruction,causal-graph1,79547,female,35,english,United States of America,Right,R564914717360gxrw,1.0,,,,,,,,,,,
9,instruction,causal-graph1,84831,female,35,english,United States of America,Right,R564914717360gxrw,,,,,,,,,,,,
9,instruction,survey-multi-choice,109803,female,35,english,United States of America,Right,R564914717360gxrw,,,"{""Q0"":"" To decide what caused the activation of G"",""Q1"":"" A detector becomes active if it absorbs a radioactive particle or receives input from an active detector"",""Q2"":"" G becomes active if it absorbs a radioactive particle""}",,,,,,,,,
9,instruction,causal-graph1,112572,female,35,english,United States of America,Right,R564914717360gxrw,,,,,,,,,,,,
9,instruction,causal-graph1,115531,female,35,english,United States of America,Right,R564914717360gxrw,,,,,,,,,,,,
9,instruction,causal-graph1,117574,female,35,english,United States of America,Right,R564914717360gxrw,,,,,,,,,,,,
9,instruction,causal-graph1,128865,female,35,english,United States of America,Right,R564914717360gxrw,1.0,,,,,,,,,,,
9,instruction,causal-graph1,151927,female,35,english,United States of America,Right,R564914717360gxrw,,,,,,,,,,,,
9,instruction,causal-graph1,168667,female,35,english,United States of America,Right,R564914717360gxrw,1.0,,,,,,,,,,,
9,instruction,causal-graph1,171226,female,35,english,United States of America,Right,R564914717360gxrw,,,,,,,,,,,,
9,instruction,survey-multi-choice,202404,female,35,english,United States of America,Right,R564914717360gxrw,,,"{""Q0"":"" To decide what caused the activation of G"",""Q1"":"" A detector becomes active if it absorbs a radioactive particle"",""Q2"":"" G becomes active if all of its inputs are active""}",,,,,,,,,
9,instruction,causal-graph1,204601,female,35,english,United States of America,Right,R564914717360gxrw,,,,,,,,,,,,
9,instruction,causal-graph1,206832,female,35,english,United States of America,Right,R564914717360gxrw,,,,,,,,,,,,
9,instruction,causal-graph1,209273,female,35,english,United States of America,Right,R564914717360gxrw,,,,,,,,,,,,
9,instruction,causal-graph1,218241,female,35,english,United States of America,Right,R564914717360gxrw,1.0,,,,,,,,,,,
9,instruction,causal-graph1,219582,female,35,english,United States of America,Right,R564914717360gxrw,,,,,,,,,,,,
9,instruction,causal-graph1,224863,female,35,english,United States of America,Right,R564914717360gxrw,1.0,,,,,,,,,,,
9,instruction,causal-graph1,226006,female,35,english,United States of America,Right,R564914717360gxrw,,,,,,,,,,,,
9,instruction,survey-multi-choice,237568,female,35,english,United States of America,Right,R564914717360gxrw,,,"{""Q0"":"" To find out if the Gauge of Critical Moment (G) is activated or not"",""Q1"":"" A detector becomes active if it absorbs a radioactive particle"",""Q2"":"" G becomes active if all of its inputs are active""}",,,,,,,,,
9,instruction,causal-graph1,239030,female,35,english,United States of America,Right,R564914717360gxrw,,,,,,,,,,,,
9,instruction,causal-graph1,242220,female,35,english,United States of America,Right,R564914717360gxrw,,,,,,,,,,,,
9,instruction,causal-graph1,244580,female,35,english,United States of America,Right,R564914717360gxrw,,,,,,,,,,,,
9,instruction,causal-graph1,250503,female,35,english,United States of America,Right,R564914717360gxrw,1.0,,,,,,,,,,,
9,instruction,causal-graph1,251136,female,35,english,United States of America,Right,R564914717360gxrw,,,,,,,,,,,,
9,instruction,causal-graph1,256091,female,35,english,United States of America,Right,R564914717360gxrw,1.0,,,,,,,,,,,
9,instruction,causal-graph1,260715,female,35,english,United States of America,Right,R564914717360gxrw,,,,,,,,,,,,
9,instruction,survey-multi-choice,303352,female,35,english,United States of America,Right,R564914717360gxrw,,,"{""Q0"":"" To find out if the Gauge of Critical Moment (G) is activated or not"",""Q1"":"" A detector becomes active if it absorbs a radioactive particle or receives input from an active detector"",""Q2"":"" G becomes active if all of its inputs are active""}",,,,,,,,,
9,instruction,causal-graph1,304794,female,35,english,United States of America,Right,R564914717360gxrw,,,,,,,,,,,,
9,instruction,causal-graph1,322095,female,35,english,United States of America,Right,R564914717360gxrw,,,,,,,,,,,,
9,instruction,causal-graph1,324681,female,35,english,United States of America,Right,R564914717360gxrw,,,,,,,,,,,,
9,instruction,causal-graph1,337215,female,35,english,United States of America,Right,R564914717360gxrw,1.0,,,,,,,,,,,
9,instruction,causal-graph1,344189,female,35,english,United States of America,Right,R564914717360gxrw,,,,,,,,,,,,
9,instruction,causal-graph1,361158,female,35,english,United States of America,Right,R564914717360gxrw,1.0,,,,,,,,,,,
9,instruction,causal-graph1,362621,female,35,english,United States of America,Right,R564914717360gxrw,,,,,,,,,,,,
9,instruction,survey-multi-choice,375518,female,35,english,United States of America,Right,R564914717360gxrw,,,"{""Q0"":"" To decide what caused the activation of G"",""Q1"":"" A detector becomes active if it absorbs a radioactive particle or receives input from an active detector"",""Q2"":"" G becomes active if all of its inputs are active""}",,,,,,,,,
9,instruction,causal-graph1,377272,female,35,english,United States of America,Right,R564914717360gxrw,,,,,,,,,,,,
9,chainS_R,causal-graph1,394203,female,35,english,United States of America,Right,R564914717360gxrw,1.0,15379.935000000813,,ChainS,,,,,,,,nodeB9
9,UAS_RB,causal-graph1,412804,female,35,english,United States of America,Right,R564914717360gxrw,1.0,16069.515000001062,,AND_Gate,Unrolled,Bottom,Squares,State,A,,B,nodeB8
9,UBBS_RB,causal-graph1,426043,female,35,english,United States of America,Right,R564914717360gxrw,1.0,9699.819999999832,,AND_Gate,Unrolled,Bottom,Squares,Event,,B,B,nodeB2
9,UBS_RB,causal-graph1,440474,female,35,english,United States of America,Right,R564914717360gxrw,1.0,11413.82999999955,,AND_Gate,Unrolled,Bottom,Squares,State,B,,A,nodeA30
9,UABS_RB,causal-graph1,457524,female,35,english,United States of America,Right,R564914717360gxrw,1.0,15111.909999999623,,AND_Gate,Unrolled,Bottom,Squares,Event,,A,B,nodeB7
9,UAAS_RB,causal-graph1,469242,female,35,english,United States of America,Right,R564914717360gxrw,1.0,10563.785000000264,,AND_Gate,Unrolled,Bottom,Squares,Event,,A,A,nodeA7
9,UBAS_RT,causal-graph1,499127,female,35,english,United States of America,Right,R564914717360gxrw,1.0,10958.435000000523,,AND_Gate,Unrolled,Top,Squares,Event,,B,A,nodeA25
9,instruction,causal-graph1,500849,female,35,english,United States of America,Right,R564914717360gxrw,,,,,,,,,,,,
9,comment,survey-text,504843,female,35,english,United States of America,Right,R564914717360gxrw,,3987.655000000843,"{""Q0"":""""}",,,,,,,,,
10,instruction,causal-graph1,5382,female,32,English,United States of America,Right,R567462027230gxrw,,,,,,,,,,,,
10,instruction,causal-graph1,10763,female,32,English,United States of America,Right,R567462027230gxrw,,,,,,,,,,,,
10,instruction,causal-graph1,34804,female,32,English,United States of America,Right,R567462027230gxrw,3.0,,,,,,,,,,,
10,instruction,causal-graph1,44898,female,32,English,United States of America,Right,R567462027230gxrw,,,,,,,,,,,,
10,instruction,causal-graph1,63532,female,32,English,United States of America,Right,R567462027230gxrw,1.0,,,,,,,,,,,
10,instruction,causal-graph1,72691,female,32,English,United States of America,Right,R567462027230gxrw,,,,,,,,,,,,
10,instruction,survey-multi-choice,122765,female,32,English,United States of America,Right,R567462027230gxrw,,,"{""Q0"":"" To decide what caused the activation of G"",""Q1"":"" A detector becomes active if it absorbs a radioactive particle or receives input from an active detector"",""Q2"":"" G becomes active if all of its inputs are active""}",,,,,,,,,
10,instruction,causal-graph1,125192,female,32,English,United States of America,Right,R567462027230gxrw,,,,,,,,,,,,
10,UBBS_RB,causal-graph1,151963,female,32,English,United States of America,Right,R567462027230gxrw,2.0,13241.27499992028,,AND_Gate,Unrolled,Bottom,Squares,Event,,B,B,nodeB2
10,UAS_RT,causal-graph1,177802,female,32,English,United States of America,Right,R567462027230gxrw,2.0,11701.82499999646,,AND_Gate,Unrolled,Top,Squares,State,A,,B,nodeB8
10,UABS_RB,causal-graph1,193339,female,32,English,United States of America,Right,R567462027230gxrw,1.0,14340.994999976829,,AND_Gate,Unrolled,Bottom,Squares,Event,,A,B,nodeA7
10,UBAS_RT,causal-graph1,206694,female,32,English,United States of America,Right,R567462027230gxrw,1.0,12222.380000050181,,AND_Gate,Unrolled,Top,Squares,Event,,B,A,nodeB4
10,UBS_RB,causal-graph1,217956,female,32,English,United States of America,Right,R567462027230gxrw,1.0,10356.090000015683,,AND_Gate,Unrolled,Bottom,Squares,State,B,,A,nodeB8
10,chainS_R,causal-graph1,227164,female,32,English,United States of America,Right,R567462027230gxrw,1.0,8439.875000040047,,ChainS,,,,,,,,nodeB9
10,UAAS_RT,causal-graph1,239659,female,32,English,United States of America,Right,R567462027230gxrw,1.0,11719.8699999135,,AND_Gate,Unrolled,Top,Squares,Event,,A,A,nodeA7
10,instruction,causal-graph1,241421,female,32,English,United States of America,Right,R567462027230gxrw,,,,,,,,,,,,
10,comment,survey-text,245304,female,32,English,United States of America,Right,R567462027230gxrw,,3872.6000000024214,"{""Q0"":""""}",,,,,,,,,
11,instruction,causal-graph1,5914,male,47,English,United States of America,Right,R569839927200gxrw,,,,,,,,,,,,
11,instruction,causal-graph1,14428,male,47,English,United States of America,Right,R569839927200gxrw,,,,,,,,,,,,
11,instruction,causal-graph1,29909,male,47,English,United States of America,Right,R569839927200gxrw,1.0,,,,,,,,,,,
11,instruction,causal-graph1,38725,male,47,English,United States of America,Right,R569839927200gxrw,,,,,,,,,,,,
11,instruction,causal-graph1,53588,male,47,English,United States of America,Right,R569839927200gxrw,1.0,,,,,,,,,,,
11,instruction,causal-graph1,65635,male,47,English,United States of America,Right,R569839927200gxrw,,,,,,,,,,,,
11,instruction,survey-multi-choice,100091,male,47,English,United States of America,Right,R569839927200gxrw,,,"{""Q0"":"" To decide what caused the activation of each detector"",""Q1"":"" A detector becomes active if it absorbs a radioactive particle or receives input from an active detector"",""Q2"":"" G becomes active if all of its inputs are active""}",,,,,,,,,
11,instruction,causal-graph1,103188,male,47,English,United States of America,Right,R569839927200gxrw,,,,,,,,,,,,
11,instruction,causal-graph1,104835,male,47,English,United States of America,Right,R569839927200gxrw,,,,,,,,,,,,
11,instruction,causal-graph1,106258,male,47,English,United States of America,Right,R569839927200gxrw,,,,,,,,,,,,
11,instruction,causal-graph1,113433,male,47,English,United States of America,Right,R569839927200gxrw,1.0,,,,,,,,,,,
11,instruction,causal-graph1,114850,male,47,English,United States of America,Right,R569839927200gxrw,,,,,,,,,,,,
11,instruction,causal-graph1,120678,male,47,English,United States of America,Right,R569839927200gxrw,1.0,,,,,,,,,,,
11,instruction,causal-graph1,121398,male,47,English,United States of America,Right,R569839927200gxrw,,,,,,,,,,,,
11,instruction,survey-multi-choice,140326,male,47,English,United States of America,Right,R569839927200gxrw,,,"{""Q0"":"" To decide what caused the activation of each detector"",""Q1"":"" A detector becomes active if it absorbs a radioactive particle"",""Q2"":"" G becomes active if all of its inputs are active""}",,,,,,,,,
11,instruction,causal-graph1,141230,male,47,English,United States of America,Right,R569839927200gxrw,,,,,,,,,,,,
11,instruction,causal-graph1,141716,male,47,English,United States of America,Right,R569839927200gxrw,,,,,,,,,,,,
11,instruction,causal-graph1,142810,male,47,English,United States of America,Right,R569839927200gxrw,,,,,,,,,,,,
11,instruction,causal-graph1,146858,male,47,English,United States of America,Right,R569839927200gxrw,1.0,,,,,,,,,,,
11,instruction,causal-graph1,147437,male,47,English,United States of America,Right,R569839927200gxrw,,,,,,,,,,,,
11,instruction,causal-graph1,152345,male,47,English,United States of America,Right,R569839927200gxrw,1.0,,,,,,,,,,,
11,instruction,causal-graph1,152539,male,47,English,United States of America,Right,R569839927200gxrw,,,,,,,,,,,,
11,instruction,survey-multi-choice,166712,male,47,English,United States of America,Right,R569839927200gxrw,,,"{""Q0"":"" To decide what caused the activation of G"",""Q1"":"" A detector becomes active if it absorbs a radioactive particle or receives input from an active detector"",""Q2"":"" G becomes active if all of its inputs are active""}",,,,,,,,,
11,instruction,causal-graph1,167679,male,47,English,United States of America,Right,R569839927200gxrw,,,,,,,,,,,,
11,UABS_RB,causal-graph1,197883,male,47,English,United States of America,Right,R569839927200gxrw,1.0,28754.565000010185,,AND_Gate,Unrolled,Bottom,Squares,Event,,A,B,nodeB7
11,UAS_RB,causal-graph1,216666,male,47,English,United States of America,Right,R569839927200gxrw,1.0,17309.895000013057,,AND_Gate,Unrolled,Bottom,Squares,State,A,,B,nodeB8
11,UBS_RT,causal-graph1,231509,male,47,English,United States of America,Right,R569839927200gxrw,1.0,13038.965000014286,,AND_Gate,Unrolled,Top,Squares,State,B,,A,nodeA30
11,UAAS_RB,causal-graph1,255907,male,47,English,United States of America,Right,R569839927200gxrw,1.0,23010.929999989457,,AND_Gate,Unrolled,Bottom,Squares,Event,,A,A,nodeB7
11,chainS_R,causal-graph1,267275,male,47,English,United States of America,Right,R569839927200gxrw,1.0,9523.384999949483,,ChainS,,,,,,,,nodeB9
11,UBBS_RT,causal-graph1,288697,male,47,English,United States of America,Right,R569839927200gxrw,1.0,19661.029999959286,,AND_Gate,Unrolled,Top,Squares,Event,,B,B,nodeA37
11,UBAS_RT,causal-graph1,304003,male,47,English,United States of America,Right,R569839927200gxrw,1.0,13856.595000019297,,AND_Gate,Unrolled,Top,Squares,Event,,B,A,nodeA25
11,instruction,causal-graph1,305782,male,47,English,United States of America,Right,R569839927200gxrw,,,,,,,,,,,,
11,comment,survey-text,312145,male,47,English,United States of America,Right,R569839927200gxrw,,6351.699999999255,"{""Q0"":""""}",,,,,,,,,
12,instruction,causal-graph1,9284,female,54,English,United States of America,Left,R567382397420gxrw,,,,,,,,,,,,
12,instruction,causal-graph1,19409,female,54,English,United States of America,Left,R567382397420gxrw,,,,,,,,,,,,
12,instruction,causal-graph1,49338,female,54,English,United States of America,Left,R567382397420gxrw,1.0,,,,,,,,,,,
12,instruction,causal-graph1,61589,female,54,English,United States of America,Left,R567382397420gxrw,,,,,,,,,,,,
12,instruction,causal-graph1,84076,female,54,English,United States of America,Left,R567382397420gxrw,1.0,,,,,,,,,,,
12,instruction,causal-graph1,102847,female,54,English,United States of America,Left,R567382397420gxrw,,,,,,,,,,,,
12,instruction,survey-multi-choice,145275,female,54,English,United States of America,Left,R567382397420gxrw,,,"{""Q0"":"" To decide what caused the activation of G"",""Q1"":"" A detector becomes active if it absorbs a radioactive particle or receives input from an active detector"",""Q2"":"" G becomes active if all of its inputs are active""}",,,,,,,,,
12,instruction,causal-graph1,148622,female,54,English,United States of America,Left,R567382397420gxrw,,,,,,,,,,,,
12,UBBS_LB,causal-graph1,173651,female,54,English,United States of America,Left,R567382397420gxrw,1.0,21210.364999991725,,AND_Gate,Unrolled,Bottom,Squares,Event,,B,B,nodeB2
12,UBAS_LB,causal-graph1,190495,female,54,English,United States of America,Left,R567382397420gxrw,1.0,12153.525000001535,,AND_Gate,Unrolled,Bottom,Squares,Event,,B,A,nodeB4
12,UBS_LT,causal-graph1,218402,female,54,English,United States of America,Left,R567382397420gxrw,1.0,21244.98499999754,,AND_Gate,Unrolled,Top,Squares,State,B,,A,nodeB8
12,UABS_LT,causal-graph1,237035,female,54,English,United States of America,Left,R567382397420gxrw,1.0,15506.6599999991,,AND_Gate,Unrolled,Top,Squares,Event,,A,B,nodeA7
12,UAS_LB,causal-graph1,252685,female,54,English,United States of America,Left,R567382397420gxrw,1.0,13474.68499999377,,AND_Gate,Unrolled,Bottom,Squares,State,A,,B,nodeA27
12,chainS_L,causal-graph1,274451,female,54,English,United States of America,Left,R567382397420gxrw,1.0,10375.78499999654,,ChainS,,,,,,,,nodeB9
12,UAAS_LB,causal-graph1,288151,female,54,English,United States of America,Left,R567382397420gxrw,1.0,11244.785000002596,,AND_Gate,Unrolled,Bottom,Squares,Event,,A,A,nodeA7
12,instruction,causal-graph1,291034,female,54,English,United States of America,Left,R567382397420gxrw,,,,,,,,,,,,
12,comment,survey-text,296363,female,54,English,United States of America,Left,R567382397420gxrw,,5318.6400000122385,"{""Q0"":""""}",,,,,,,,,
13,instruction,causal-graph1,17859,female,41,English,United States of America,Right,R561692637360gxrw,,,,,,,,,,,,
13,instruction,causal-graph1,30539,female,41,English,United States of America,Right,R561692637360gxrw,,,,,,,,,,,,
13,instruction,causal-graph1,45636,female,41,English,United States of America,Right,R561692637360gxrw,1.0,,,,,,,,,,,
13,instruction,causal-graph1,58187,female,41,English,United States of America,Right,R561692637360gxrw,,,,,,,,,,,,
13,instruction,causal-graph1,101235,female,41,English,United States of America,Right,R561692637360gxrw,1.0,,,,,,,,,,,
13,instruction,causal-graph1,110803,female,41,English,United States of America,Right,R561692637360gxrw,,,,,,,,,,,,
13,instruction,survey-multi-choice,167868,female,41,English,United States of America,Right,R561692637360gxrw,,,"{""Q0"":"" To decide what caused the activation of G"",""Q1"":"" A detector becomes active if it absorbs a radioactive particle or receives input from an active detector"",""Q2"":"" G becomes active if all of its inputs are active""}",,,,,,,,,
13,instruction,causal-graph1,169939,female,41,English,United States of America,Right,R561692637360gxrw,,,,,,,,,,,,
13,chainS_R,causal-graph1,192827,female,41,English,United States of America,Right,R561692637360gxrw,1.0,21004.164999932982,,ChainS,,,,,,,,nodeB9
13,UAS_RT,causal-graph1,218435,female,41,English,United States of America,Right,R561692637360gxrw,1.0,24181.970000034198,,AND_Gate,Unrolled,Top,Squares,State,A,,B,nodeB8
13,UBAS_RT,causal-graph1,229756,female,41,English,United States of America,Right,R561692637360gxrw,1.0,9838.864999939688,,AND_Gate,Unrolled,Top,Squares,Event,,B,A,nodeA25
13,UAAS_RB,causal-graph1,241875,female,41,English,United States of America,Right,R561692637360gxrw,1.0,10435.349999926984,,AND_Gate,Unrolled,Bottom,Squares,Event,,A,A,nodeB7
13,UABS_RT,causal-graph1,255859,female,41,English,United States of America,Right,R561692637360gxrw,1.0,12133.28999991063,,AND_Gate,Unrolled,Top,Squares,Event,,A,B,nodeB7
13,UBBS_RT,causal-graph1,294564,female,41,English,United States of America,Right,R561692637360gxrw,1.0,11085.960000054909,,AND_Gate,Unrolled,Top,Squares,Event,,B,B,nodeA37
13,UBS_RT,causal-graph1,306883,female,41,English,United States of America,Right,R561692637360gxrw,1.0,10477.61000005994,,AND_Gate,Unrolled,Top,Squares,State,B,,A,nodeA30
13,instruction,causal-graph1,308963,female,41,English,United States of America,Right,R561692637360gxrw,,,,,,,,,,,,
13,comment,survey-text,311076,female,41,English,United States of America,Right,R561692637360gxrw,,2105.4449999937788,"{""Q0"":""""}",,,,,,,,,
14,instruction,causal-graph1,8372,female,43,English,United States of America,Left,R567209797420gxrw,,,,,,,,,,,,
14,instruction,causal-graph1,16299,female,43,English,United States of America,Left,R567209797420gxrw,,,,,,,,,,,,
14,instruction,causal-graph1,38818,female,43,English,United States of America,Left,R567209797420gxrw,2.0,,,,,,,,,,,
14,instruction,causal-graph1,115725,female,43,English,United States of America,Left,R567209797420gxrw,,,,,,,,,,,,
14,instruction,causal-graph1,152785,female,43,English,United States of America,Left,R567209797420gxrw,1.0,,,,,,,,,,,
14,instruction,causal-graph1,190309,female,43,English,United States of America,Left,R567209797420gxrw,,,,,,,,,,,,
14,instruction,survey-multi-choice,268597,female,43,English,United States of America,Left,R567209797420gxrw,,,"{""Q0"":"" To find out if the Gauge of Critical Moment (G) is activated or not"",""Q1"":"" A detector becomes active if it absorbs a radioactive particle or receives input from an active detector"",""Q2"":"" G becomes active if all of its inputs are active""}",,,,,,,,,
14,instruction,causal-graph1,271784,female,43,English,United States of America,Left,R567209797420gxrw,,,,,,,,,,,,
14,instruction,causal-graph1,274704,female,43,English,United States of America,Left,R567209797420gxrw,,,,,,,,,,,,
14,instruction,causal-graph1,277951,female,43,English,United States of America,Left,R567209797420gxrw,,,,,,,,,,,,
14,instruction,causal-graph1,291998,female,43,English,United States of America,Left,R567209797420gxrw,1.0,,,,,,,,,,,
14,instruction,causal-graph1,298372,female,43,English,United States of America,Left,R567209797420gxrw,,,,,,,,,,,,
14,instruction,causal-graph1,304796,female,43,English,United States of America,Left,R567209797420gxrw,1.0,,,,,,,,,,,
14,instruction,causal-graph1,306694,female,43,English,United States of America,Left,R567209797420gxrw,,,,,,,,,,,,
14,instruction,survey-multi-choice,321659,female,43,English,United States of America,Left,R567209797420gxrw,,,"{""Q0"":"" To decide what caused the activation of G"",""Q1"":"" A detector becomes active if it absorbs a radioactive particle or receives input from an active detector"",""Q2"":"" G becomes active if all of its inputs are active""}",,,,,,,,,
14,instruction,causal-graph1,325155,female,43,English,United States of America,Left,R567209797420gxrw,,,,,,,,,,,,
14,UAS_LB,causal-graph1,349656,female,43,English,United States of America,Left,R567209797420gxrw,1.0,22433.03499999456,,AND_Gate,Unrolled,Bottom,Squares,State,A,,B,nodeB8
14,UABS_LB,causal-graph1,390456,female,43,English,United States of America,Left,R567209797420gxrw,1.0,38436.44499999937,,AND_Gate,Unrolled,Bottom,Squares,Event,,A,B,nodeB7
14,UBS_LT,causal-graph1,411261,female,43,English,United States of America,Left,R567209797420gxrw,1.0,18817.610000027344,,AND_Gate,Unrolled,Top,Squares,State,B,,A,nodeA30
14,UBBS_LB,causal-graph1,428923,female,43,English,United States of America,Left,R567209797420gxrw,1.0,15478.465000051074,,AND_Gate,Unrolled,Bottom,Squares,Event,,B,B,nodeA37
14,chainS_L,causal-graph1,444818,female,43,English,United States of America,Left,R567209797420gxrw,1.0,10241.804999997841,,ChainS,,,,,,,,nodeB9
14,UBAS_LT,causal-graph1,458993,female,43,English,United States of America,Left,R567209797420gxrw,1.0,11861.679999972694,,AND_Gate,Unrolled,Top,Squares,Event,,B,A,nodeA25
14,UAAS_LT,causal-graph1,473104,female,43,English,United States of America,Left,R567209797420gxrw,1.0,11811.814999906344,,AND_Gate,Unrolled,Top,Squares,Event,,A,A,nodeB7
14,instruction,causal-graph1,475405,female,43,English,United States of America,Left,R567209797420gxrw,,,,,,,,,,,,
14,comment,survey-text,484508,female,43,English,United States of America,Left,R567209797420gxrw,,8930.699999909848,"{""Q0"":""None""}",,,,,,,,,
15,instruction,causal-graph1,5939,male,42,English,United States of America,Left,R567431727960gxrw,,,,,,,,,,,,
15,instruction,causal-graph1,8955,male,42,English,United States of America,Left,R567431727960gxrw,,,,,,,,,,,,
15,instruction,causal-graph1,19527,male,42,English,United States of America,Left,R567431727960gxrw,1.0,,,,,,,,,,,
15,instruction,causal-graph1,25376,male,42,English,United States of America,Left,R567431727960gxrw,,,,,,,,,,,,
15,instruction,causal-graph1,36148,male,42,English,United States of America,Left,R567431727960gxrw,1.0,,,,,,,,,,,
15,instruction,causal-graph1,39944,male,42,English,United States of America,Left,R567431727960gxrw,,,,,,,,,,,,
15,instruction,survey-multi-choice,50005,male,42,English,United States of America,Left,R567431727960gxrw,,,"{""Q0"":"" To decide what caused the activation of G"",""Q1"":"" A detector becomes active if it absorbs a radioactive particle or receives input from an active detector"",""Q2"":"" G becomes active if all of its inputs are active""}",,,,,,,,,
15,instruction,causal-graph1,51725,male,42,English,United States of America,Left,R567431727960gxrw,,,,,,,,,,,,
15,UAS_LB,causal-graph1,69859,male,42,English,United States of America,Left,R567431727960gxrw,1.0,16247.810000088066,,AND_Gate,Unrolled,Bottom,Squares,State,A,,B,nodeB8
15,chainS_L,causal-graph1,82414,male,42,English,United States of America,Left,R567431727960gxrw,1.0,10988.320000004023,,ChainS,,,,,,,,nodeB9
15,UABS_LT,causal-graph1,99184,male,42,English,United States of America,Left,R567431727960gxrw,1.0,15217.210000031628,,AND_Gate,Unrolled,Top,Squares,Event,,A,B,nodeB7
15,UBBS_LT,causal-graph1,112006,male,42,English,United States of America,Left,R567431727960gxrw,1.0,10570.175000000743,,AND_Gate,Unrolled,Top,Squares,Event,,B,B,nodeA37
15,UAAS_LB,causal-graph1,126073,male,42,English,United States of America,Left,R567431727960gxrw,1.0,12031.614999985322,,AND_Gate,Unrolled,Bottom,Squares,Event,,A,A,nodeB7
15,UBS_LT,causal-graph1,139427,male,42,English,United States of America,Left,R567431727960gxrw,1.0,10935.935000074096,,AND_Gate,Unrolled,Top,Squares,State,B,,A,nodeA30
15,UBAS_LT,causal-graph1,153683,male,42,English,United States of America,Left,R567431727960gxrw,1.0,12505.330000072718,,AND_Gate,Unrolled,Top,Squares,Event,,B,A,nodeA25
15,instruction,causal-graph1,155429,male,42,English,United States of America,Left,R567431727960gxrw,,,,,,,,,,,,
15,comment,survey-text,157741,male,42,English,United States of America,Left,R567431727960gxrw,,2308.319999952801,"{""Q0"":""""}",,,,,,,,,
16,instruction,causal-graph1,3974,male,36,English,United States of America,Right,R569778127550gxrw,,,,,,,,,,,,
16,instruction,causal-graph1,7427,male,36,English,United States of America,Right,R569778127550gxrw,,,,,,,,,,,,
16,instruction,causal-graph1,20536,male,36,English,United States of America,Right,R569778127550gxrw,1.0,,,,,,,,,,,
16,instruction,causal-graph1,26068,male,36,English,United States of America,Right,R569778127550gxrw,,,,,,,,,,,,
16,instruction,causal-graph1,40403,male,36,English,United States of America,Right,R569778127550gxrw,1.0,,,,,,,,,,,
16,instruction,causal-graph1,45200,male,36,English,United States of America,Right,R569778127550gxrw,,,,,,,,,,,,
16,instruction,survey-multi-choice,70167,male,36,English,United States of America,Right,R569778127550gxrw,,,"{""Q0"":"" To find out if the Gauge of Critical Moment (G) is activated or not"",""Q1"":"" A detector becomes active if it absorbs a radioactive particle or receives input from an active detector"",""Q2"":"" G becomes active if all of its inputs are active""}",,,,,,,,,
16,instruction,causal-graph1,71831,male,36,English,United States of America,Right,R569778127550gxrw,,,,,,,,,,,,
16,instruction,causal-graph1,73261,male,36,English,United States of America,Right,R569778127550gxrw,,,,,,,,,,,,
16,instruction,causal-graph1,74793,male,36,English,United States of America,Right,R569778127550gxrw,,,,,,,,,,,,
16,instruction,causal-graph1,81081,male,36,English,United States of America,Right,R569778127550gxrw,1.0,,,,,,,,,,,
16,instruction,causal-graph1,86058,male,36,English,United States of America,Right,R569778127550gxrw,,,,,,,,,,,,
16,instruction,causal-graph1,92527,male,36,English,United States of America,Right,R569778127550gxrw,1.0,,,,,,,,,,,
16,instruction,causal-graph1,93619,male,36,English,United States of America,Right,R569778127550gxrw,,,,,,,,,,,,
16,instruction,survey-multi-choice,103752,male,36,English,United States of America,Right,R569778127550gxrw,,,"{""Q0"":"" To decide what caused the activation of G"",""Q1"":"" A detector becomes active if it absorbs a radioactive particle or receives input from an active detector"",""Q2"":"" G becomes active if all of its inputs are active""}",,,,,,,,,
16,instruction,causal-graph1,104902,male,36,English,United States of America,Right,R569778127550gxrw,,,,,,,,,,,,
16,UBBS_RT,causal-graph1,121134,male,36,English,United States of America,Right,R569778127550gxrw,1.0,14677.0,,AND_Gate,Unrolled,Top,Squares,Event,,B,B,nodeB2
16,UBS_RT,causal-graph1,133799,male,36,English,United States of America,Right,R569778127550gxrw,1.0,11168.0,,AND_Gate,Unrolled,Top,Squares,State,B,,A,nodeA30
16,chainS_R,causal-graph1,143877,male,36,English,United States of America,Right,R569778127550gxrw,1.0,8575.0,,ChainS,,,,,,,,nodeB9
16,UAAS_RT,causal-graph1,156134,male,36,English,United States of America,Right,R569778127550gxrw,1.0,10834.0,,AND_Gate,Unrolled,Top,Squares,Event,,A,A,nodeA7
16,UABS_RB,causal-graph1,169509,male,36,English,United States of America,Right,R569778127550gxrw,1.0,12483.0,,AND_Gate,Unrolled,Bottom,Squares,Event,,A,B,nodeB7
16,UAS_RB,causal-graph1,182047,male,36,English,United States of America,Right,R569778127550gxrw,1.0,10841.0,,AND_Gate,Unrolled,Bottom,Squares,State,A,,B,nodeB8
16,UBAS_RT,causal-graph1,193884,male,36,English,United States of America,Right,R569778127550gxrw,1.0,10186.0,,AND_Gate,Unrolled,Top,Squares,Event,,B,A,nodeA25
16,instruction,causal-graph1,195398,male,36,English,United States of America,Right,R569778127550gxrw,,,,,,,,,,,,
16,comment,survey-text,197139,male,36,English,United States of America,Right,R569778127550gxrw,,1736.0,"{""Q0"":""""}",,,,,,,,,
17,instruction,causal-graph1,2866,male,33,English,United States of America,Left,R564283037450gxrw,,,,,,,,,,,,
17,instruction,causal-graph1,5800,male,33,English,United States of America,Left,R564283037450gxrw,,,,,,,,,,,,
17,instruction,causal-graph1,19101,male,33,English,United States of America,Left,R564283037450gxrw,2.0,,,,,,,,,,,
17,instruction,causal-graph1,81269,male,33,English,United States of America,Left,R564283037450gxrw,,,,,,,,,,,,
17,instruction,causal-graph1,94856,male,33,English,United States of America,Left,R564283037450gxrw,1.0,,,,,,,,,,,
17,instruction,causal-graph1,101177,male,33,English,United States of America,Left,R564283037450gxrw,,,,,,,,,,,,
17,instruction,survey-multi-choice,119967,male,33,English,United States of America,Left,R564283037450gxrw,,,"{""Q0"":"" To decide what caused the activation of G"",""Q1"":"" A detector becomes active if it absorbs a radioactive particle or receives input from an active detector"",""Q2"":"" G becomes active if all of its inputs are active""}",,,,,,,,,
17,instruction,causal-graph1,122178,male,33,English,United States of America,Left,R564283037450gxrw,,,,,,,,,,,,
17,UBS_LB,causal-graph1,139063,male,33,English,United States of America,Left,R564283037450gxrw,1.0,14582.345000002531,,AND_Gate,Unrolled,Bottom,Squares,State,B,,A,nodeB8
17,UABS_LB,causal-graph1,153442,male,33,English,United States of America,Left,R564283037450gxrw,1.0,12354.53500004951,,AND_Gate,Unrolled,Bottom,Squares,Event,,A,B,nodeA7
17,UBAS_LB,causal-graph1,165599,male,33,English,United States of America,Left,R564283037450gxrw,1.0,10113.089999998921,,AND_Gate,Unrolled,Bottom,Squares,Event,,B,A,nodeB4
17,chainS_L,causal-graph1,175140,male,33,English,United States of America,Left,R564283037450gxrw,1.0,8417.959999991579,,ChainS,,,,,,,,nodeB9
17,UBBS_LB,causal-graph1,185835,male,33,English,United States of America,Left,R564283037450gxrw,1.0,9154.895000043323,,AND_Gate,Unrolled,Bottom,Squares,Event,,B,B,nodeB2
17,UAS_LB,causal-graph1,200329,male,33,English,United States of America,Left,R564283037450gxrw,1.0,10756.58500008285,,AND_Gate,Unrolled,Bottom,Squares,State,A,,B,nodeA27
17,UAAS_LB,causal-graph1,256397,male,33,English,United States of America,Left,R564283037450gxrw,1.0,10934.054999961518,,AND_Gate,Unrolled,Bottom,Squares,Event,,A,A,nodeA7
17,instruction,causal-graph1,258191,male,33,English,United States of America,Left,R564283037450gxrw,,,,,,,,,,,,
17,comment,survey-text,259698,male,33,English,United States of America,Left,R564283037450gxrw,,1492.020000005141,"{""Q0"":""""}",,,,,,,,,
18,instruction,causal-graph1,5848,male,39,English,United States of America,Right,R568424107440gxrw,,,,,,,,,,,,
18,instruction,causal-graph1,12272,male,39,English,United States of America,Right,R568424107440gxrw,,,,,,,,,,,,
18,instruction,causal-graph1,27033,male,39,English,United States of America,Right,R568424107440gxrw,1.0,,,,,,,,,,,
18,instruction,causal-graph1,34776,male,39,English,United States of America,Right,R568424107440gxrw,,,,,,,,,,,,
18,instruction,causal-graph1,51905,male,39,English,United States of America,Right,R568424107440gxrw,1.0,,,,,,,,,,,
18,instruction,causal-graph1,59704,male,39,English,United States of America,Right,R568424107440gxrw,,,,,,,,,,,,
18,instruction,survey-multi-choice,73982,male,39,English,United States of America,Right,R568424107440gxrw,,,"{""Q0"":"" To decide what caused the activation of G"",""Q1"":"" A detector becomes active if it absorbs a radioactive particle or receives input from an active detector"",""Q2"":"" G becomes active if all of its inputs are active""}",,,,,,,,,
18,instruction,causal-graph1,75977,male,39,English,United States of America,Right,R568424107440gxrw,,,,,,,,,,,,
18,UBBS_RT,causal-graph1,103593,male,39,English,United States of America,Right,R568424107440gxrw,1.0,26118.0,,AND_Gate,Unrolled,Top,Squares,Event,,B,B,nodeB20
18,UABS_RB,causal-graph1,122697,male,39,English,United States of America,Right,R568424107440gxrw,1.0,17445.0,,AND_Gate,Unrolled,Bottom,Squares,Event,,A,B,nodeB20
18,UAS_RT,causal-graph1,139048,male,39,English,United States of America,Right,R568424107440gxrw,1.0,15311.0,,AND_Gate,Unrolled,Top,Squares,State,A,,B,nodeB20
18,UBS_RT,causal-graph1,153129,male,39,English,United States of America,Right,R568424107440gxrw,1.0,12278.0,,AND_Gate,Unrolled,Top,Squares,State,B,,A,nodeB20
18,UBAS_RB,causal-graph1,167304,male,39,English,United States of America,Right,R568424107440gxrw,1.0,12246.0,,AND_Gate,Unrolled,Bottom,Squares,Event,,B,A,nodeB20
18,UAAS_RT,causal-graph1,180545,male,39,English,United States of America,Right,R568424107440gxrw,1.0,11566.0,,AND_Gate,Unrolled,Top,Squares,Event,,A,A,nodeB20
18,chainS_R,causal-graph1,194928,male,39,English,United States of America,Right,R568424107440gxrw,1.0,12207.0,,ChainS,,,,,,,,nodeB20
18,instruction,causal-graph1,196728,male,39,English,United States of America,Right,R568424107440gxrw,,,,,,,,,,,,
18,comment,survey-text,200761,male,39,English,United States of America,Right,R568424107440gxrw,,4028.0,"{""Q0"":""""}",,,,,,,,,
19,instruction,causal-graph1,3742,male,27,English,United States of America,Right,R562717627310gxrw,,,,,,,,,,,,
19,instruction,causal-graph1,6628,male,27,English,United States of America,Right,R562717627310gxrw,,,,,,,,,,,,
19,instruction,causal-graph1,15448,male,27,English,United States of America,Right,R562717627310gxrw,1.0,,,,,,,,,,,
19,instruction,causal-graph1,19584,male,27,English,United States of America,Right,R562717627310gxrw,,,,,,,,,,,,
19,instruction,causal-graph1,30931,male,27,English,United States of America,Right,R562717627310gxrw,1.0,,,,,,,,,,,
19,instruction,causal-graph1,35222,male,27,English,United States of America,Right,R562717627310gxrw,,,,,,,,,,,,
19,instruction,survey-multi-choice,57828,male,27,English,United States of America,Right,R562717627310gxrw,,,"{""Q0"":"" To decide what caused the activation of G"",""Q1"":"" A detector becomes active if it absorbs a radioactive particle or receives input from an active detector"",""Q2"":"" G becomes active if all of its inputs are active""}",,,,,,,,,
19,instruction,causal-graph1,59291,male,27,English,United States of America,Right,R562717627310gxrw,,,,,,,,,,,,
19,UABS_RB,causal-graph1,84371,male,27,English,United States of America,Right,R562717627310gxrw,1.0,23480.134999961592,,AND_Gate,Unrolled,Bottom,Squares,Event,,A,B,nodeB19
19,UBBS_RT,causal-graph1,97488,male,27,English,United States of America,Right,R562717627310gxrw,1.0,11806.374999985565,,AND_Gate,Unrolled,Top,Squares,Event,,B,B,nodeB19
19,chainS_R,causal-graph1,108076,male,27,English,United States of America,Right,R562717627310gxrw,1.0,8948.425000009593,,ChainS,,,,,,,,nodeB19
19,UBS_RB,causal-graph1,121780,male,27,English,United States of America,Right,R562717627310gxrw,1.0,12432.88500001654,,AND_Gate,Unrolled,Bottom,Squares,State,B,,A,nodeA41
19,UAAS_RB,causal-graph1,134018,male,27,English,United States of America,Right,R562717627310gxrw,1.0,10567.319999972824,,AND_Gate,Unrolled,Bottom,Squares,Event,,A,A,nodeA41
19,UBAS_RB,causal-graph1,145170,male,27,English,United States of America,Right,R562717627310gxrw,1.0,9928.390000015495,,AND_Gate,Unrolled,Bottom,Squares,Event,,B,A,nodeA41
19,UAS_RB,causal-graph1,156786,male,27,English,United States of America,Right,R562717627310gxrw,1.0,10718.350000039207,,AND_Gate,Unrolled,Bottom,Squares,State,A,,B,nodeB19
19,instruction,causal-graph1,158282,male,27,English,United States of America,Right,R562717627310gxrw,,,,,,,,,,,,
19,comment,survey-text,159838,male,27,English,United States of America,Right,R562717627310gxrw,,1550.0800000154413,"{""Q0"":""""}",,,,,,,,,
20,instruction,causal-graph1,3642,female,34,English,United States of America,Right,R564385287730gxrw,,,,,,,,,,,,
20,instruction,causal-graph1,8871,female,34,English,United States of America,Right,R564385287730gxrw,,,,,,,,,,,,
20,instruction,causal-graph1,19013,female,34,English,United States of America,Right,R564385287730gxrw,1.0,,,,,,,,,,,
20,instruction,causal-graph1,21736,female,34,English,United States of America,Right,R564385287730gxrw,,,,,,,,,,,,
20,instruction,causal-graph1,31434,female,34,English,United States of America,Right,R564385287730gxrw,1.0,,,,,,,,,,,
20,instruction,causal-graph1,36778,female,34,English,United States of America,Right,R564385287730gxrw,,,,,,,,,,,,
20,instruction,survey-multi-choice,61280,female,34,English,United States of America,Right,R564385287730gxrw,,,"{""Q0"":"" To decide what caused the activation of each detector"",""Q1"":"" A detector becomes active if it absorbs a radioactive particle or receives input from an active detector"",""Q2"":"" G becomes active if it absorbs a radioactive particle""}",,,,,,,,,
20,instruction,causal-graph1,63615,female,34,English,United States of America,Right,R564385287730gxrw,,,,,,,,,,,,
20,instruction,causal-graph1,65979,female,34,English,United States of America,Right,R564385287730gxrw,,,,,,,,,,,,
20,instruction,causal-graph1,67853,female,34,English,United States of America,Right,R564385287730gxrw,,,,,,,,,,,,
20,instruction,causal-graph1,81676,female,34,English,United States of America,Right,R564385287730gxrw,1.0,,,,,,,,,,,
20,instruction,causal-graph1,86503,female,34,English,United States of America,Right,R564385287730gxrw,,,,,,,,,,,,
20,instruction,causal-graph1,97770,female,34,English,United States of America,Right,R564385287730gxrw,1.0,,,,,,,,,,,
20,instruction,causal-graph1,99601,female,34,English,United States of America,Right,R564385287730gxrw,,,,,,,,,,,,
20,instruction,survey-multi-choice,112586,female,34,English,United States of America,Right,R564385287730gxrw,,,"{""Q0"":"" To decide what caused the activation of G"",""Q1"":"" A detector becomes active if it absorbs a radioactive particle or receives input from an active detector"",""Q2"":"" G becomes active if all of its inputs are active""}",,,,,,,,,
20,instruction,causal-graph1,114520,female,34,English,United States of America,Right,R564385287730gxrw,,,,,,,,,,,,
20,UAS_RT,causal-graph1,131881,female,34,English,United States of America,Right,R564385287730gxrw,1.0,14437.210000000048,,AND_Gate,Unrolled,Top,Squares,State,A,,B,nodeB8
20,UBAS_RB,causal-graph1,149413,female,34,English,United States of America,Right,R564385287730gxrw,1.0,14926.819999999687,,AND_Gate,Unrolled,Bottom,Squares,Event,,B,A,nodeB4
20,UBBS_RT,causal-graph1,163551,female,34,English,United States of America,Right,R564385287730gxrw,1.0,9548.51500000042,,AND_Gate,Unrolled,Top,Squares,Event,,B,B,nodeB2
20,UBS_RT,causal-graph1,178762,female,34,English,United States of America,Right,R564385287730gxrw,1.0,13354.655000000117,,AND_Gate,Unrolled,Top,Squares,State,B,,A,nodeB8
20,UAAS_RT,causal-graph1,193237,female,34,English,United States of America,Right,R564385287730gxrw,1.0,11844.03999999998,,AND_Gate,Unrolled,Top,Squares,Event,,A,A,nodeA7
20,UABS_RB,causal-graph1,207619,female,34,English,United States of America,Right,R564385287730gxrw,1.0,12345.7349999999,,AND_Gate,Unrolled,Bottom,Squares,Event,,A,B,nodeA7
20,chainS_R,causal-graph1,218135,female,34,English,United States of America,Right,R564385287730gxrw,1.0,8669.350000000122,,ChainS,,,,,,,,nodeB9
20,instruction,causal-graph1,220205,female,34,English,United States of America,Right,R564385287730gxrw,,,,,,,,,,,,
20,comment,survey-text,221497,female,34,English,United States of America,Right,R564385287730gxrw,,1284.7200000005541,"{""Q0"":""""}",,,,,,,,,
21,instruction,causal-graph1,6615,male,24,English,United States of America,Left,R564927097300gxrw,,,,,,,,,,,,
21,instruction,causal-graph1,18527,male,24,English,United States of America,Left,R564927097300gxrw,,,,,,,,,,,,
21,instruction,causal-graph1,41128,male,24,English,United States of America,Left,R564927097300gxrw,1.0,,,,,,,,,,,
21,instruction,causal-graph1,57537,male,24,English,United States of America,Left,R564927097300gxrw,,,,,,,,,,,,
21,instruction,causal-graph1,82138,male,24,English,United States of America,Left,R564927097300gxrw,1.0,,,,,,,,,,,
21,instruction,causal-graph1,91370,male,24,English,United States of America,Left,R564927097300gxrw,,,,,,,,,,,,
21,instruction,survey-multi-choice,113972,male,24,English,United States of America,Left,R564927097300gxrw,,,"{""Q0"":"" To decide what caused the activation of G"",""Q1"":"" A detector becomes active if it absorbs a radioactive particle or receives input from an active detector"",""Q2"":"" G becomes active if all of its inputs are active""}",,,,,,,,,
21,instruction,causal-graph1,115627,male,24,English,United States of America,Left,R564927097300gxrw,,,,,,,,,,,,
21,UAS_LB,causal-graph1,138068,male,24,English,United States of America,Left,R564927097300gxrw,1.0,20471.245000022464,,AND_Gate,Unrolled,Bottom,Squares,State,A,,B,nodeB19
21,UBAS_LB,causal-graph1,152061,male,24,English,United States of America,Left,R564927097300gxrw,1.0,12158.709999988789,,AND_Gate,Unrolled,Bottom,Squares,Event,,B,A,nodeA41
21,chainS_L,causal-graph1,165925,male,24,English,United States of America,Left,R564927097300gxrw,1.0,10190.38000004366,,ChainS,,,,,,,,nodeB19
21,UBBS_LB,causal-graph1,177614,male,24,English,United States of America,Left,R564927097300gxrw,1.0,10302.555000060238,,AND_Gate,Unrolled,Bottom,Squares,Event,,B,B,nodeB19
21,UABS_LB,causal-graph1,193902,male,24,English,United States of America,Left,R564927097300gxrw,1.0,14942.74999992922,,AND_Gate,Unrolled,Bottom,Squares,Event,,A,B,nodeB19
21,UBS_LT,causal-graph1,207207,male,24,English,United States of America,Left,R564927097300gxrw,1.0,11590.695000020789,,AND_Gate,Unrolled,Top,Squares,State,B,,A,nodeA41
21,UAAS_LB,causal-graph1,220952,male,24,English,United States of America,Left,R564927097300gxrw,1.0,12326.904999907129,,AND_Gate,Unrolled,Bottom,Squares,Event,,A,A,nodeA41
21,instruction,causal-graph1,222584,male,24,English,United States of America,Left,R564927097300gxrw,,,,,,,,,,,,
21,comment,survey-text,225336,male,24,English,United States of America,Left,R564927097300gxrw,,2746.380000025965,"{""Q0"":""""}",,,,,,,,,
22,instruction,causal-graph1,4780,male,32,english,United States of America,Right,R567072427720gxrw,,,,,,,,,,,,
22,instruction,causal-graph1,10015,male,32,english,United States of America,Right,R567072427720gxrw,,,,,,,,,,,,
22,instruction,causal-graph1,34575,male,32,english,United States of America,Right,R567072427720gxrw,1.0,,,,,,,,,,,
22,instruction,causal-graph1,44237,male,32,english,United States of America,Right,R567072427720gxrw,,,,,,,,,,,,
22,instruction,causal-graph1,77763,male,32,english,United States of America,Right,R567072427720gxrw,1.0,,,,,,,,,,,
22,instruction,causal-graph1,91272,male,32,english,United States of America,Right,R567072427720gxrw,,,,,,,,,,,,
22,instruction,survey-multi-choice,150288,male,32,english,United States of America,Right,R567072427720gxrw,,,"{""Q0"":"" To decide what caused the activation of G"",""Q1"":"" A detector becomes active if it absorbs a radioactive particle or receives input from an active detector"",""Q2"":"" G becomes active if all of its inputs are active""}",,,,,,,,,
22,instruction,causal-graph1,154016,male,32,english,United States of America,Right,R567072427720gxrw,,,,,,,,,,,,
22,chainS_R,causal-graph1,180186,male,32,english,United States of America,Right,R567072427720gxrw,1.0,23526.0,,ChainS,,,,,,,,nodeB9
22,UBS_RT,causal-graph1,201729,male,32,english,United States of America,Right,R567072427720gxrw,1.0,17378.0,,AND_Gate,Unrolled,Top,Squares,State,B,,A,nodeA30
22,UABS_RB,causal-graph1,217070,male,32,english,United States of America,Right,R567072427720gxrw,1.0,12866.0,,AND_Gate,Unrolled,Bottom,Squares,Event,,A,B,nodeB7
22,UBBS_RB,causal-graph1,228773,male,32,english,United States of America,Right,R567072427720gxrw,1.0,9624.0,,AND_Gate,Unrolled,Bottom,Squares,Event,,B,B,nodeB2
22,UBAS_RT,causal-graph1,241359,male,32,english,United States of America,Right,R567072427720gxrw,1.0,10867.0,,AND_Gate,Unrolled,Top,Squares,Event,,B,A,nodeA25
22,UAS_RB,causal-graph1,254132,male,32,english,United States of America,Right,R567072427720gxrw,1.0,11031.0,,AND_Gate,Unrolled,Bottom,Squares,State,A,,B,nodeB8
22,UAAS_RB,causal-graph1,268231,male,32,english,United States of America,Right,R567072427720gxrw,1.0,12541.0,,AND_Gate,Unrolled,Bottom,Squares,Event,,A,A,nodeA7
22,instruction,causal-graph1,271000,male,32,english,United States of America,Right,R567072427720gxrw,,,,,,,,,,,,
22,comment,survey-text,275985,male,32,english,United States of America,Right,R567072427720gxrw,,4946.0,"{""Q0"":""""}",,,,,,,,,
23,instruction,causal-graph1,8906,male,38,English,United States of America,Right,R565616437700gxrw,,,,,,,,,,,,
23,instruction,causal-graph1,14723,male,38,English,United States of America,Right,R565616437700gxrw,,,,,,,,,,,,
23,instruction,causal-graph1,36705,male,38,English,United States of America,Right,R565616437700gxrw,2.0,,,,,,,,,,,
23,instruction,causal-graph1,46487,male,38,English,United States of America,Right,R565616437700gxrw,,,,,,,,,,,,
23,instruction,causal-graph1,60708,male,38,English,United States of America,Right,R565616437700gxrw,1.0,,,,,,,,,,,
23,instruction,causal-graph1,70752,male,38,English,United States of America,Right,R565616437700gxrw,,,,,,,,,,,,
23,instruction,survey-multi-choice,93717,male,38,English,United States of America,Right,R565616437700gxrw,,,"{""Q0"":"" To decide what caused the activation of G"",""Q1"":"" A detector becomes active if it absorbs a radioactive particle or receives input from an active detector"",""Q2"":"" G becomes active if all of its inputs are active""}",,,,,,,,,
23,instruction,causal-graph1,95457,male,38,English,United States of America,Right,R565616437700gxrw,,,,,,,,,,,,
23,chainS_R,causal-graph1,118829,male,38,English,United States of America,Right,R565616437700gxrw,1.0,20741.985000000568,,ChainS,,,,,,,,nodeB19
23,UBBS_RB,causal-graph1,135342,male,38,English,United States of America,Right,R565616437700gxrw,1.0,14266.709999999875,,AND_Gate,Unrolled,Bottom,Squares,Event,,B,B,nodeB19
23,UBS_RB,causal-graph1,150041,male,38,English,United States of America,Right,R565616437700gxrw,1.0,11722.27500000008,,AND_Gate,Unrolled,Bottom,Squares,State,B,,A,nodeA41
23,UABS_RB,causal-graph1,164986,male,38,English,United States of America,Right,R565616437700gxrw,1.0,11965.000000000147,,AND_Gate,Unrolled,Bottom,Squares,Event,,A,B,nodeB19
23,UAAS_RT,causal-graph1,177983,male,38,English,United States of America,Right,R565616437700gxrw,1.0,10859.8149999998,,AND_Gate,Unrolled,Top,Squares,Event,,A,A,nodeA41
23,UAS_RB,causal-graph1,191810,male,38,English,United States of America,Right,R565616437700gxrw,1.0,12255.849999997738,,AND_Gate,Unrolled,Bottom,Squares,State,A,,B,nodeB19
23,UBAS_RT,causal-graph1,207008,male,38,English,United States of America,Right,R565616437700gxrw,1.0,12664.219999998779,,AND_Gate,Unrolled,Top,Squares,Event,,B,A,nodeA41
23,instruction,causal-graph1,208923,male,38,English,United States of America,Right,R565616437700gxrw,,,,,,,,,,,,
23,comment,survey-text,217717,male,38,English,United States of America,Right,R565616437700gxrw,,8787.404999999097,"{""Q0"":""""}",,,,,,,,,
24,instruction,causal-graph1,27061,female,49,English,United States of America,Right,R564974807240gxrw,,,,,,,,,,,,
24,instruction,causal-graph1,48045,female,49,English,United States of America,Right,R564974807240gxrw,,,,,,,,,,,,
24,instruction,causal-graph1,89806,female,49,English,United States of America,Right,R564974807240gxrw,1.0,,,,,,,,,,,
24,instruction,causal-graph1,118564,female,49,English,United States of America,Right,R564974807240gxrw,,,,,,,,,,,,
24,instruction,causal-graph1,154364,female,49,English,United States of America,Right,R564974807240gxrw,1.0,,,,,,,,,,,
24,instruction,causal-graph1,172388,female,49,English,United States of America,Right,R564974807240gxrw,,,,,,,,,,,,
24,instruction,survey-multi-choice,277949,female,49,English,United States of America,Right,R564974807240gxrw,,,"{""Q0"":"" To decide what caused the activation of G"",""Q1"":"" A detector becomes active if it absorbs a radioactive particle or receives input from an active detector"",""Q2"":"" G becomes active if all of its inputs are active""}",,,,,,,,,
24,instruction,causal-graph1,282756,female,49,English,United States of America,Right,R564974807240gxrw,,,,,,,,,,,,
24,UAAS_RT,causal-graph1,349589,female,49,English,United States of America,Right,R564974807240gxrw,3.0,13667.00499993749,,AND_Gate,Unrolled,Top,Squares,Event,,A,A,nodeA41
24,UBBS_RT,causal-graph1,394157,female,49,English,United States of America,Right,R564974807240gxrw,3.0,14610.235000029206,,AND_Gate,Unrolled,Top,Squares,Event,,B,B,nodeB19
24,chainS_R,causal-graph1,434629,female,49,English,United States of America,Right,R564974807240gxrw,2.0,9046.895000035876,,ChainS,,,,,,,,nodeB19
24,UBS_RB,causal-graph1,467291,female,49,English,United States of America,Right,R564974807240gxrw,2.0,11750.96500001382,,AND_Gate,Unrolled,Bottom,Squares,State,B,,A,nodeA41
24,UABS_RT,causal-graph1,527791,female,49,English,United States of America,Right,R564974807240gxrw,3.0,12187.340000062251,,AND_Gate,Unrolled,Top,Squares,Event,,A,B,nodeB19
24,UBAS_RT,causal-graph1,567949,female,49,English,United States of America,Right,R564974807240gxrw,2.0,10861.815000069328,,AND_Gate,Unrolled,Top,Squares,Event,,B,A,nodeA41
24,UAS_RT,causal-graph1,582788,female,49,English,United States of America,Right,R564974807240gxrw,1.0,11792.184999911116,,AND_Gate,Unrolled,Top,Squares,State,A,,B,nodeB19
24,instruction,causal-graph1,585157,female,49,English,United States of America,Right,R564974807240gxrw,,,,,,,,,,,,
24,comment,survey-text,591165,female,49,English,United States of America,Right,R564974807240gxrw,,5989.2499999841675,"{""Q0"":""""}",,,,,,,,,
25,instruction,causal-graph1,116592,female,40,English,United States of America,Left,R565102177690gxrw,,,,,,,,,,,,
25,instruction,causal-graph1,122023,female,40,English,United States of America,Left,R565102177690gxrw,,,,,,,,,,,,
25,instruction,causal-graph1,151096,female,40,English,United States of America,Left,R565102177690gxrw,1.0,,,,,,,,,,,
25,instruction,causal-graph1,159647,female,40,English,United States of America,Left,R565102177690gxrw,,,,,,,,,,,,
25,instruction,causal-graph1,176888,female,40,English,United States of America,Left,R565102177690gxrw,1.0,,,,,,,,,,,
25,instruction,causal-graph1,188632,female,40,English,United States of America,Left,R565102177690gxrw,,,,,,,,,,,,
25,instruction,survey-multi-choice,219432,female,40,English,United States of America,Left,R565102177690gxrw,,,"{""Q0"":"" To decide what caused the activation of G"",""Q1"":"" A detector becomes active if it absorbs a radioactive particle"",""Q2"":"" G becomes active if all of its inputs are active""}",,,,,,,,,
25,instruction,causal-graph1,222368,female,40,English,United States of America,Left,R565102177690gxrw,,,,,,,,,,,,
25,instruction,causal-graph1,224640,female,40,English,United States of America,Left,R565102177690gxrw,,,,,,,,,,,,
25,instruction,causal-graph1,225912,female,40,English,United States of America,Left,R565102177690gxrw,,,,,,,,,,,,
25,instruction,causal-graph1,236727,female,40,English,United States of America,Left,R565102177690gxrw,1.0,,,,,,,,,,,
25,instruction,causal-graph1,243031,female,40,English,United States of America,Left,R565102177690gxrw,,,,,,,,,,,,
25,instruction,causal-graph1,251671,female,40,English,United States of America,Left,R565102177690gxrw,1.0,,,,,,,,,,,
25,instruction,causal-graph1,258831,female,40,English,United States of America,Left,R565102177690gxrw,,,,,,,,,,,,
25,instruction,survey-multi-choice,319823,female,40,English,United States of America,Left,R565102177690gxrw,,,"{""Q0"":"" To decide what caused the activation of G"",""Q1"":"" A detector becomes active if it absorbs a radioactive particle or receives input from an active detector"",""Q2"":"" G becomes active if all of its inputs are active""}",,,,,,,,,
25,instruction,causal-graph1,323719,female,40,English,United States of America,Left,R565102177690gxrw,,,,,,,,,,,,
25,UAAS_LB,causal-graph1,364975,female,40,English,United States of America,Left,R565102177690gxrw,2.0,14461.690000025557,,AND_Gate,Unrolled,Bottom,Squares,Event,,A,A,nodeA7
25,UBAS_LT,causal-graph1,380175,female,40,English,United States of America,Left,R565102177690gxrw,1.0,13028.795000049287,,AND_Gate,Unrolled,Top,Squares,Event,,B,A,nodeA25
25,chainS_L,causal-graph1,393255,female,40,English,United States of America,Left,R565102177690gxrw,1.0,11037.710000062361,,ChainS,,,,,,,,nodeB9
25,UAS_LB,causal-graph1,409894,female,40,English,United States of America,Left,R565102177690gxrw,1.0,14956.664999946954,,AND_Gate,Unrolled,Bottom,Squares,State,A,,B,nodeB8
25,UBBS_LT,causal-graph1,422351,female,40,English,United States of America,Left,R565102177690gxrw,1.0,10869.509999989532,,AND_Gate,Unrolled,Top,Squares,Event,,B,B,nodeB2
25,UBS_LT,causal-graph1,436151,female,40,English,United States of America,Left,R565102177690gxrw,1.0,11253.645000047982,,AND_Gate,Unrolled,Top,Squares,State,B,,A,nodeA30
25,UABS_LT,causal-graph1,454271,female,40,English,United States of America,Left,R565102177690gxrw,1.0,16485.1900000358,,AND_Gate,Unrolled,Top,Squares,Event,,A,B,nodeB7
25,instruction,causal-graph1,456175,female,40,English,United States of America,Left,R565102177690gxrw,,,,,,,,,,,,
25,comment,survey-text,463967,female,40,English,United States of America,Left,R565102177690gxrw,,7785.58999998495,"{""Q0"":""Thank you.""}",,,,,,,,,
26,instruction,causal-graph1,8548,female,57,English,United States of America,Right,R565390917210gxrw,,,,,,,,,,,,
26,instruction,causal-graph1,13289,female,57,English,United States of America,Right,R565390917210gxrw,,,,,,,,,,,,
26,instruction,causal-graph1,34370,female,57,English,United States of America,Right,R565390917210gxrw,1.0,,,,,,,,,,,
26,instruction,causal-graph1,42540,female,57,English,United States of America,Right,R565390917210gxrw,,,,,,,,,,,,
26,instruction,causal-graph1,62907,female,57,English,United States of America,Right,R565390917210gxrw,1.0,,,,,,,,,,,
26,instruction,causal-graph1,71739,female,57,English,United States of America,Right,R565390917210gxrw,,,,,,,,,,,,
26,instruction,survey-multi-choice,91478,female,57,English,United States of America,Right,R565390917210gxrw,,,"{""Q0"":"" To decide what caused the activation of G"",""Q1"":"" A detector becomes active if it absorbs a radioactive particle or receives input from an active detector"",""Q2"":"" G becomes active if all of its inputs are active""}",,,,,,,,,
26,instruction,causal-graph1,95987,female,57,English,United States of America,Right,R565390917210gxrw,,,,,,,,,,,,
26,UAAS_RB,causal-graph1,118484,female,57,English,United States of America,Right,R565390917210gxrw,1.0,19880.0,,AND_Gate,Unrolled,Bottom,Squares,Event,,A,A,nodeB7
26,UBAS_RB,causal-graph1,138956,female,57,English,United States of America,Right,R565390917210gxrw,1.0,16765.0,,AND_Gate,Unrolled,Bottom,Squares,Event,,B,A,nodeA25
26,chainS_R,causal-graph1,157572,female,57,English,United States of America,Right,R565390917210gxrw,1.0,13049.0,,ChainS,,,,,,,,nodeB9
26,UBBS_RT,causal-graph1,185587,female,57,English,United States of America,Right,R565390917210gxrw,2.0,11752.0,,AND_Gate,Unrolled,Top,Squares,Event,,B,B,nodeB2
26,UAS_RB,causal-graph1,204609,female,57,English,United States of America,Right,R565390917210gxrw,1.0,16383.0,,AND_Gate,Unrolled,Bottom,Squares,State,A,,B,nodeB8
26,UABS_RT,causal-graph1,230500,female,57,English,United States of America,Right,R565390917210gxrw,1.0,18569.0,,AND_Gate,Unrolled,Top,Squares,Event,,A,B,nodeB7
26,UBS_RB,causal-graph1,248974,female,57,English,United States of America,Right,R565390917210gxrw,1.0,16011.0,,AND_Gate,Unrolled,Bottom,Squares,State,B,,A,nodeA30
26,instruction,causal-graph1,251938,female,57,English,United States of America,Right,R565390917210gxrw,,,,,,,,,,,,
26,comment,survey-text,257159,female,57,English,United States of America,Right,R565390917210gxrw,,5057.0,"{""Q0"":""""}",,,,,,,,,
27,instruction,causal-graph1,9855,female,46,English,United States of America,Right,R568788967700gxrw,,,,,,,,,,,,
27,instruction,causal-graph1,23176,female,46,English,United States of America,Right,R568788967700gxrw,,,,,,,,,,,,
27,instruction,causal-graph1,47361,female,46,English,United States of America,Right,R568788967700gxrw,1.0,,,,,,,,,,,
27,instruction,causal-graph1,64572,female,46,English,United States of America,Right,R568788967700gxrw,,,,,,,,,,,,
27,instruction,causal-graph1,85080,female,46,English,United States of America,Right,R568788967700gxrw,1.0,,,,,,,,,,,
27,instruction,causal-graph1,101455,female,46,English,United States of America,Right,R568788967700gxrw,,,,,,,,,,,,
27,instruction,survey-multi-choice,122292,female,46,English,United States of America,Right,R568788967700gxrw,,,"{""Q0"":"" To decide what caused the activation of G"",""Q1"":"" A detector becomes active if it absorbs a radioactive particle or receives input from an active detector"",""Q2"":"" G becomes active if all of its inputs are active""}",,,,,,,,,
27,instruction,causal-graph1,125761,female,46,English,United States of America,Right,R568788967700gxrw,,,,,,,,,,,,
27,UAAS_RB,causal-graph1,147540,female,46,English,United States of America,Right,R568788967700gxrw,1.0,18795.619999989867,,AND_Gate,Unrolled,Bottom,Squares,Event,,A,A,nodeB7
27,UABS_RT,causal-graph1,168444,female,46,English,United States of America,Right,R568788967700gxrw,1.0,17377.364999963902,,AND_Gate,Unrolled,Top,Squares,Event,,A,B,nodeB7
27,UBBS_RT,causal-graph1,185495,female,46,English,United States of America,Right,R568788967700gxrw,1.0,14596.669999998994,,AND_Gate,Unrolled,Top,Squares,Event,,B,B,nodeA37
27,UBAS_RB,causal-graph1,202110,female,46,English,United States of America,Right,R568788967700gxrw,1.0,13488.884999998845,,AND_Gate,Unrolled,Bottom,Squares,Event,,B,A,nodeA25
27,chainS_R,causal-graph1,217120,female,46,English,United States of America,Right,R568788967700gxrw,1.0,12091.354999982284,,ChainS,,,,,,,,nodeB9
27,UAS_RT,causal-graph1,233687,female,46,English,United States of America,Right,R568788967700gxrw,1.0,13552.450000017418,,AND_Gate,Unrolled,Top,Squares,State,A,,B,nodeB8
27,UBS_RB,causal-graph1,250539,female,46,English,United States of America,Right,R568788967700gxrw,1.0,14157.0800000336,,AND_Gate,Unrolled,Bottom,Squares,State,B,,A,nodeA30
27,instruction,causal-graph1,253743,female,46,English,United States of America,Right,R568788967700gxrw,,,,,,,,,,,,
27,comment,survey-text,260305,female,46,English,United States of America,Right,R568788967700gxrw,,6553.879999963101,"{""Q0"":""""}",,,,,,,,,
28,instruction,causal-graph1,9416,male,35,english,United States of America,Right,R565796347770gxrw,,,,,,,,,,,,
28,instruction,causal-graph1,15089,male,35,english,United States of America,Right,R565796347770gxrw,,,,,,,,,,,,
28,instruction,causal-graph1,35626,male,35,english,United States of America,Right,R565796347770gxrw,1.0,,,,,,,,,,,
28,instruction,causal-graph1,46766,male,35,english,United States of America,Right,R565796347770gxrw,,,,,,,,,,,,
28,instruction,causal-graph1,65285,male,35,english,United States of America,Right,R565796347770gxrw,1.0,,,,,,,,,,,
28,instruction,causal-graph1,212308,male,35,english,United States of America,Right,R565796347770gxrw,,,,,,,,,,,,
28,instruction,survey-multi-choice,249988,male,35,english,United States of America,Right,R565796347770gxrw,,,"{""Q0"":"" To decide what caused the activation of G"",""Q1"":"" A detector becomes active if it absorbs a radioactive particle"",""Q2"":"" G becomes active if all of its inputs are active""}",,,,,,,,,
28,instruction,causal-graph1,255131,male,35,english,United States of America,Right,R565796347770gxrw,,,,,,,,,,,,
28,instruction,causal-graph1,256691,male,35,english,United States of America,Right,R565796347770gxrw,,,,,,,,,,,,
28,instruction,causal-graph1,260253,male,35,english,United States of America,Right,R565796347770gxrw,,,,,,,,,,,,
28,instruction,causal-graph1,277706,male,35,english,United States of America,Right,R565796347770gxrw,1.0,,,,,,,,,,,
28,instruction,causal-graph1,288749,male,35,english,United States of America,Right,R565796347770gxrw,,,,,,,,,,,,
28,instruction,causal-graph1,302874,male,35,english,United States of America,Right,R565796347770gxrw,1.0,,,,,,,,,,,
28,instruction,causal-graph1,308693,male,35,english,United States of America,Right,R565796347770gxrw,,,,,,,,,,,,
28,instruction,survey-multi-choice,347193,male,35,english,United States of America,Right,R565796347770gxrw,,,"{""Q0"":"" To decide what caused the activation of G"",""Q1"":"" A detector becomes active if it absorbs a radioactive particle or receives input from an active detector"",""Q2"":"" G becomes active if all of its inputs are active""}",,,,,,,,,
28,instruction,causal-graph1,349323,male,35,english,United States of America,Right,R565796347770gxrw,,,,,,,,,,,,
28,UBBS_RT,causal-graph1,373870,male,35,english,United States of America,Right,R565796347770gxrw,1.0,22666.319999989355,,AND_Gate,Unrolled,Top,Squares,Event,,B,B,nodeB2
28,UABS_RT,causal-graph1,390048,male,35,english,United States of America,Right,R565796347770gxrw,1.0,13914.96999998344,,AND_Gate,Unrolled,Top,Squares,Event,,A,B,nodeA7
28,UAAS_RT,causal-graph1,424309,male,35,english,United States of America,Right,R565796347770gxrw,1.0,17479.699999996228,,AND_Gate,Unrolled,Top,Squares,Event,,A,A,nodeA7
28,UBAS_RT,causal-graph1,441709,male,35,english,United States of America,Right,R565796347770gxrw,1.0,9980.40500000934,,AND_Gate,Unrolled,Top,Squares,Event,,B,A,nodeB4
28,chainS_R,causal-graph1,453101,male,35,english,United States of America,Right,R565796347770gxrw,1.0,9447.649999987334,,ChainS,,,,,,,,nodeB9
28,UAS_RB,causal-graph1,469270,male,35,english,United States of America,Right,R565796347770gxrw,1.0,14280.070000007981,,AND_Gate,Unrolled,Bottom,Squares,State,A,,B,nodeA27
28,UBS_RB,causal-graph1,481516,male,35,english,United States of America,Right,R565796347770gxrw,1.0,10486.945000011474,,AND_Gate,Unrolled,Bottom,Squares,State,B,,A,nodeB8
28,instruction,causal-graph1,483435,male,35,english,United States of America,Right,R565796347770gxrw,,,,,,,,,,,,
28,comment,survey-text,484905,male,35,english,United States of America,Right,R565796347770gxrw,,1452.1499999973455,"{""Q0"":""""}",,,,,,,,,
29,instruction,causal-graph1,18864,male,59,ENGLISH,United States of America,Right,R561817947540gxrw,,,,,,,,,,,,
29,instruction,causal-graph1,30896,male,59,ENGLISH,United States of America,Right,R561817947540gxrw,,,,,,,,,,,,
29,instruction,causal-graph1,61592,male,59,ENGLISH,United States of America,Right,R561817947540gxrw,1.0,,,,,,,,,,,
29,instruction,causal-graph1,77448,male,59,ENGLISH,United States of America,Right,R561817947540gxrw,,,,,,,,,,,,
29,instruction,causal-graph1,102727,male,59,ENGLISH,United States of America,Right,R561817947540gxrw,1.0,,,,,,,,,,,
29,instruction,causal-graph1,118975,male,59,ENGLISH,United States of America,Right,R561817947540gxrw,,,,,,,,,,,,
29,instruction,survey-multi-choice,167104,male,59,ENGLISH,United States of America,Right,R561817947540gxrw,,,"{""Q0"":"" To find out if the Gauge of Critical Moment (G) is activated or not"",""Q1"":"" A detector becomes active if it absorbs a radioactive particle or receives input from an active detector"",""Q2"":"" G becomes active if all of its inputs are active""}",,,,,,,,,
29,instruction,causal-graph1,170887,male,59,ENGLISH,United States of America,Right,R561817947540gxrw,,,,,,,,,,,,
29,instruction,causal-graph1,171415,male,59,ENGLISH,United States of America,Right,R561817947540gxrw,,,,,,,,,,,,
29,instruction,causal-graph1,171855,male,59,ENGLISH,United States of America,Right,R561817947540gxrw,,,,,,,,,,,,
29,instruction,causal-graph1,176351,male,59,ENGLISH,United States of America,Right,R561817947540gxrw,1.0,,,,,,,,,,,
29,instruction,causal-graph1,176967,male,59,ENGLISH,United States of America,Right,R561817947540gxrw,,,,,,,,,,,,
29,instruction,causal-graph1,183328,male,59,ENGLISH,United States of America,Right,R561817947540gxrw,1.0,,,,,,,,,,,
29,instruction,causal-graph1,184303,male,59,ENGLISH,United States of America,Right,R561817947540gxrw,,,,,,,,,,,,
29,instruction,survey-multi-choice,216359,male,59,ENGLISH,United States of America,Right,R561817947540gxrw,,,"{""Q0"":"" To find out if the Gauge of Critical Moment (G) is activated or not"",""Q1"":"" A detector becomes active if it absorbs a radioactive particle"",""Q2"":"" G becomes active if all of its inputs are active""}",,,,,,,,,
29,instruction,causal-graph1,217488,male,59,ENGLISH,United States of America,Right,R561817947540gxrw,,,,,,,,,,,,
29,instruction,causal-graph1,218304,male,59,ENGLISH,United States of America,Right,R561817947540gxrw,,,,,,,,,,,,
29,instruction,causal-graph1,218743,male,59,ENGLISH,United States of America,Right,R561817947540gxrw,,,,,,,,,,,,
29,instruction,causal-graph1,231497,male,59,ENGLISH,United States of America,Right,R561817947540gxrw,1.0,,,,,,,,,,,
29,instruction,causal-graph1,232416,male,59,ENGLISH,United States of America,Right,R561817947540gxrw,,,,,,,,,,,,
29,instruction,causal-graph1,238192,male,59,ENGLISH,United States of America,Right,R561817947540gxrw,1.0,,,,,,,,,,,
29,instruction,causal-graph1,239544,male,59,ENGLISH,United States of America,Right,R561817947540gxrw,,,,,,,,,,,,
29,instruction,survey-multi-choice,254240,male,59,ENGLISH,United States of America,Right,R561817947540gxrw,,,"{""Q0"":"" To decide what caused the activation of G"",""Q1"":"" A detector becomes active if it absorbs a radioactive particle"",""Q2"":"" G becomes active if all of its inputs are active""}",,,,,,,,,
29,instruction,causal-graph1,255175,male,59,ENGLISH,United States of America,Right,R561817947540gxrw,,,,,,,,,,,,
29,instruction,causal-graph1,259975,male,59,ENGLISH,United States of America,Right,R561817947540gxrw,,,,,,,,,,,,
29,instruction,causal-graph1,263695,male,59,ENGLISH,United States of America,Right,R561817947540gxrw,,,,,,,,,,,,
29,instruction,causal-graph1,291280,male,59,ENGLISH,United States of America,Right,R561817947540gxrw,1.0,,,,,,,,,,,
29,instruction,causal-graph1,307360,male,59,ENGLISH,United States of America,Right,R561817947540gxrw,,,,,,,,,,,,
29,instruction,causal-graph1,323831,male,59,ENGLISH,United States of America,Right,R561817947540gxrw,1.0,,,,,,,,,,,
29,instruction,causal-graph1,324656,male,59,ENGLISH,United States of America,Right,R561817947540gxrw,,,,,,,,,,,,
29,instruction,survey-multi-choice,357223,male,59,ENGLISH,United States of America,Right,R561817947540gxrw,,,"{""Q0"":"" To decide what caused the activation of G"",""Q1"":"" A detector becomes active if it absorbs a radioactive particle"",""Q2"":"" G becomes active if all of its inputs are active""}",,,,,,,,,
29,instruction,causal-graph1,358015,male,59,ENGLISH,United States of America,Right,R561817947540gxrw,,,,,,,,,,,,
29,instruction,causal-graph1,359239,male,59,ENGLISH,United States of America,Right,R561817947540gxrw,,,,,,,,,,,,
29,instruction,causal-graph1,361063,male,59,ENGLISH,United States of America,Right,R561817947540gxrw,,,,,,,,,,,,
29,instruction,causal-graph1,365167,male,59,ENGLISH,United States of America,Right,R561817947540gxrw,1.0,,,,,,,,,,,
29,instruction,causal-graph1,365623,male,59,ENGLISH,United States of America,Right,R561817947540gxrw,,,,,,,,,,,,
29,instruction,causal-graph1,371343,male,59,ENGLISH,United States of America,Right,R561817947540gxrw,1.0,,,,,,,,,,,
29,instruction,causal-graph1,372279,male,59,ENGLISH,United States of America,Right,R561817947540gxrw,,,,,,,,,,,,
29,instruction,survey-multi-choice,395239,male,59,ENGLISH,United States of America,Right,R561817947540gxrw,,,"{""Q0"":"" To decide what caused the activation of G"",""Q1"":"" A detector becomes active if it absorbs a radioactive particle or receives input from an active detector"",""Q2"":"" G becomes active if all of its inputs are active""}",,,,,,,,,
29,instruction,causal-graph1,398431,male,59,ENGLISH,United States of America,Right,R561817947540gxrw,,,,,,,,,,,,
29,UBAS_RB,causal-graph1,447408,male,59,ENGLISH,United States of America,Right,R561817947540gxrw,2.0,11011.860000086015,,AND_Gate,Unrolled,Bottom,Squares,Event,,B,A,nodeB4
29,UAS_RT,causal-graph1,464711,male,59,ENGLISH,United States of America,Right,R561817947540gxrw,1.0,13181.779999984428,,AND_Gate,Unrolled,Top,Squares,State,A,,B,nodeA27
29,UBBS_RT,causal-graph1,480728,male,59,ENGLISH,United States of America,Right,R561817947540gxrw,1.0,12942.710000090301,,AND_Gate,Unrolled,Top,Squares,Event,,B,B,nodeB2
29,chainS_R,causal-graph1,492159,male,59,ENGLISH,United States of America,Right,R561817947540gxrw,1.0,9806.295000016691,,ChainS,,,,,,,,nodeB9
29,UABS_RB,causal-graph1,520919,male,59,ENGLISH,United States of America,Right,R561817947540gxrw,1.0,15917.75999998208,,AND_Gate,Unrolled,Bottom,Squares,Event,,A,B,nodeA7
29,UAAS_RT,causal-graph1,541455,male,59,ENGLISH,United States of America,Right,R561817947540gxrw,1.0,14541.214999975637,,AND_Gate,Unrolled,Top,Squares,Event,,A,A,nodeB7
29,UBS_RB,causal-graph1,553584,male,59,ENGLISH,United States of America,Right,R561817947540gxrw,1.0,10599.165000021458,,AND_Gate,Unrolled,Bottom,Squares,State,B,,A,nodeB8
29,instruction,causal-graph1,559487,male,59,ENGLISH,United States of America,Right,R561817947540gxrw,,,,,,,,,,,,
29,comment,survey-text,586184,male,59,ENGLISH,United States of America,Right,R561817947540gxrw,,26640.80499997362,"{""Q0"":""THANK YOU.""}",,,,,,,,,
30,instruction,causal-graph1,8666,female,29,english,United States of America,Left,R565951837980gxrw,,,,,,,,,,,,
30,instruction,causal-graph1,26812,female,29,english,United States of America,Left,R565951837980gxrw,,,,,,,,,,,,
30,instruction,causal-graph1,51241,female,29,english,United States of America,Left,R565951837980gxrw,1.0,,,,,,,,,,,
30,instruction,causal-graph1,58118,female,29,english,United States of America,Left,R565951837980gxrw,,,,,,,,,,,,
30,instruction,causal-graph1,72112,female,29,english,United States of America,Left,R565951837980gxrw,1.0,,,,,,,,,,,
30,instruction,causal-graph1,77701,female,29,english,United States of America,Left,R565951837980gxrw,,,,,,,,,,,,
30,instruction,survey-multi-choice,105385,female,29,english,United States of America,Left,R565951837980gxrw,,,"{""Q0"":"" To decide what caused the activation of G"",""Q1"":"" A detector becomes active if it receives input from an active detector"",""Q2"":"" G becomes active if all of its inputs are active""}",,,,,,,,,
30,instruction,causal-graph1,109879,female,29,english,United States of America,Left,R565951837980gxrw,,,,,,,,,,,,
30,instruction,causal-graph1,125964,female,29,english,United States of America,Left,R565951837980gxrw,,,,,,,,,,,,
30,instruction,causal-graph1,153035,female,29,english,United States of America,Left,R565951837980gxrw,,,,,,,,,,,,
30,instruction,causal-graph1,174475,female,29,english,United States of America,Left,R565951837980gxrw,1.0,,,,,,,,,,,
30,instruction,causal-graph1,180960,female,29,english,United States of America,Left,R565951837980gxrw,,,,,,,,,,,,
30,instruction,causal-graph1,199720,female,29,english,United States of America,Left,R565951837980gxrw,1.0,,,,,,,,,,,
30,instruction,causal-graph1,205392,female,29,english,United States of America,Left,R565951837980gxrw,,,,,,,,,,,,
30,instruction,survey-multi-choice,286675,female,29,english,United States of America,Left,R565951837980gxrw,,,"{""Q0"":"" To decide what caused the activation of G"",""Q1"":"" A detector becomes active if it absorbs a radioactive particle or receives input from an active detector"",""Q2"":"" G becomes active if all of its inputs are active""}",,,,,,,,,
30,instruction,causal-graph1,294836,female,29,english,United States of America,Left,R565951837980gxrw,,,,,,,,,,,,
30,UAS_LT,causal-graph1,324391,female,29,english,United States of America,Left,R565951837980gxrw,1.0,26005.0,,AND_Gate,Unrolled,Top,Squares,State,A,,B,nodeA19
30,UBAS_LB,causal-graph1,340691,female,29,english,United States of America,Left,R565951837980gxrw,1.0,12320.0,,AND_Gate,Unrolled,Bottom,Squares,Event,,B,A,nodeA21
30,UBBS_LB,causal-graph1,358877,female,29,english,United States of America,Left,R565951837980gxrw,1.0,14335.0,,AND_Gate,Unrolled,Bottom,Squares,Event,,B,B,nodeA23
30,chainS_L,causal-graph1,373991,female,29,english,United States of America,Left,R565951837980gxrw,1.0,11662.0,,ChainS,,,,,,,,nodeB9
30,UABS_LB,causal-graph1,391646,female,29,english,United States of America,Left,R565951837980gxrw,1.0,14377.0,,AND_Gate,Unrolled,Bottom,Squares,Event,,A,B,nodeA24
30,UBS_LB,causal-graph1,408993,female,29,english,United States of America,Left,R565951837980gxrw,1.0,14205.0,,AND_Gate,Unrolled,Bottom,Squares,State,B,,A,nodeA25
30,UAAS_LT,causal-graph1,424290,female,29,english,United States of America,Left,R565951837980gxrw,1.0,11931.0,,AND_Gate,Unrolled,Top,Squares,Event,,A,A,nodeB6
30,instruction,causal-graph1,429203,female,29,english,United States of America,Left,R565951837980gxrw,,,,,,,,,,,,
30,comment,survey-text,434110,female,29,english,United States of America,Left,R565951837980gxrw,,4828.0,"{""Q0"":""""}",,,,,,,,,
31,instruction,causal-graph1,13987,female,30,English,United States of America,Right,R567280867770gxrw,,,,,,,,,,,,
31,instruction,causal-graph1,21547,female,30,English,United States of America,Right,R567280867770gxrw,,,,,,,,,,,,
31,instruction,causal-graph1,32772,female,30,English,United States of America,Right,R567280867770gxrw,1.0,,,,,,,,,,,
31,instruction,causal-graph1,57890,female,30,English,United States of America,Right,R567280867770gxrw,,,,,,,,,,,,
31,instruction,causal-graph1,71390,female,30,English,United States of America,Right,R567280867770gxrw,1.0,,,,,,,,,,,
31,instruction,causal-graph1,74699,female,30,English,United States of America,Right,R567280867770gxrw,,,,,,,,,,,,
31,instruction,survey-multi-choice,100064,female,30,English,United States of America,Right,R567280867770gxrw,,,"{""Q0"":"" To decide what caused the activation of G"",""Q1"":"" A detector becomes active if it absorbs a radioactive particle or receives input from an active detector"",""Q2"":"" G becomes active if all of its inputs are active""}",,,,,,,,,
31,instruction,causal-graph1,101545,female,30,English,United States of America,Right,R567280867770gxrw,,,,,,,,,,,,
