subject_id,stimulus,trial_type,time_elapsed,gender,age,language,country,sampling,turkcode,nb_of_run,rt,responses,stim_type,rolled_OR_unrolled,A_branch_loc,A_detectors,state_OR_event,state_branch,root_1st,imdt_2nd,node_selected
1,instruction,causal-graph1,25008,female,35,Turkish,United States of America,Left,R568393397970gxrw,,,,,,,,,,,,
1,instruction,causal-graph1,40025,female,35,Turkish,United States of America,Left,R568393397970gxrw,,,,,,,,,,,,
1,instruction,causal-graph1,76214,female,35,Turkish,United States of America,Left,R568393397970gxrw,1.0,,,,,,,,,,,
1,instruction,causal-graph1,100212,female,35,Turkish,United States of America,Left,R568393397970gxrw,,,,,,,,,,,,
1,instruction,causal-graph1,153979,female,35,Turkish,United States of America,Left,R568393397970gxrw,1.0,,,,,,,,,,,
1,instruction,causal-graph1,168998,female,35,Turkish,United States of America,Left,R568393397970gxrw,,,,,,,,,,,,
1,instruction,survey-multi-choice,294778,female,35,Turkish,United States of America,Left,R568393397970gxrw,,,"{""Q0"":"" To decide what caused the activation of G"",""Q1"":"" A detector becomes active if it absorbs a radioactive particle or receives input from an active detector"",""Q2"":"" G becomes active if all of its inputs are active""}",,,,,,,,,
1,instruction,causal-graph1,306920,female,35,Turkish,United States of America,Left,R568393397970gxrw,,,,,,,,,,,,
1,UAS_LT,causal-graph1,386904,female,35,Turkish,United States of America,Left,R568393397970gxrw,2.0,64342.0,,AND_Gate,Unrolled,Top,Squares,State,A,,B,nodeB19
1,chainS_L,causal-graph1,429102,female,35,Turkish,United States of America,Left,R568393397970gxrw,1.0,40194.0,,ChainS,,,,,,,,nodeB9
1,UAAS_LB,causal-graph1,459063,female,35,Turkish,United States of America,Left,R568393397970gxrw,1.0,27948.0,,AND_Gate,Unrolled,Bottom,Squares,Event,,A,A,nodeB20
1,UBBS_LB,causal-graph1,494370,female,35,Turkish,United States of America,Left,R568393397970gxrw,2.0,18863.0,,AND_Gate,Unrolled,Bottom,Squares,Event,,B,B,nodeB2
1,UBS_LT,causal-graph1,513288,female,35,Turkish,United States of America,Left,R568393397970gxrw,1.0,15954.0,,AND_Gate,Unrolled,Top,Squares,State,B,,A,nodeA20
1,UBAS_LB,causal-graph1,532059,female,35,Turkish,United States of America,Left,R568393397970gxrw,1.0,17294.0,,AND_Gate,Unrolled,Bottom,Squares,Event,,B,A,nodeA25
1,UABS_LT,causal-graph1,555482,female,35,Turkish,United States of America,Left,R568393397970gxrw,1.0,21221.0,,AND_Gate,Unrolled,Top,Squares,Event,,A,B,nodeB7
1,instruction,causal-graph1,558051,female,35,Turkish,United States of America,Left,R568393397970gxrw,,,,,,,,,,,,
1,comment,survey-text,561375,female,35,Turkish,United States of America,Left,R568393397970gxrw,,3315.0,"{""Q0"":""""}",,,,,,,,,
2,instruction,causal-graph1,11045,female,31,English,United States of America,Left,R569505437620gxrw,,,,,,,,,,,,
2,instruction,causal-graph1,17027,female,31,English,United States of America,Left,R569505437620gxrw,,,,,,,,,,,,
2,instruction,causal-graph1,39513,female,31,English,United States of America,Left,R569505437620gxrw,2.0,,,,,,,,,,,
2,instruction,causal-graph1,53108,female,31,English,United States of America,Left,R569505437620gxrw,,,,,,,,,,,,
2,instruction,causal-graph1,75650,female,31,English,United States of America,Left,R569505437620gxrw,1.0,,,,,,,,,,,
2,instruction,causal-graph1,82891,female,31,English,United States of America,Left,R569505437620gxrw,,,,,,,,,,,,
2,instruction,survey-multi-choice,121943,female,31,English,United States of America,Left,R569505437620gxrw,,,"{""Q0"":"" To decide what caused the activation of G"",""Q1"":"" A detector becomes active if it absorbs a radioactive particle"",""Q2"":"" G becomes active if all of its inputs are active""}",,,,,,,,,
2,instruction,causal-graph1,125682,female,31,English,United States of America,Left,R569505437620gxrw,,,,,,,,,,,,
2,instruction,causal-graph1,127057,female,31,English,United States of America,Left,R569505437620gxrw,,,,,,,,,,,,
2,instruction,causal-graph1,128162,female,31,English,United States of America,Left,R569505437620gxrw,,,,,,,,,,,,
2,instruction,causal-graph1,132512,female,31,English,United States of America,Left,R569505437620gxrw,1.0,,,,,,,,,,,
2,instruction,causal-graph1,133381,female,31,English,United States of America,Left,R569505437620gxrw,,,,,,,,,,,,
2,instruction,causal-graph1,139073,female,31,English,United States of America,Left,R569505437620gxrw,1.0,,,,,,,,,,,
2,instruction,causal-graph1,140837,female,31,English,United States of America,Left,R569505437620gxrw,,,,,,,,,,,,
2,instruction,survey-multi-choice,173351,female,31,English,United States of America,Left,R569505437620gxrw,,,"{""Q0"":"" To decide what caused the activation of G"",""Q1"":"" A detector becomes active if it absorbs a radioactive particle or receives input from an active detector"",""Q2"":"" G becomes active if all of its inputs are active""}",,,,,,,,,
2,instruction,causal-graph1,175122,female,31,English,United States of America,Left,R569505437620gxrw,,,,,,,,,,,,
2,chainS_L,causal-graph1,192921,female,31,English,United States of America,Left,R569505437620gxrw,1.0,16502.939999998518,,ChainS,,,,,,,,nodeB9
2,UAS_LT,causal-graph1,209266,female,31,English,United States of America,Left,R569505437620gxrw,1.0,14628.544999999574,,AND_Gate,Unrolled,Top,Squares,State,A,,B,nodeB7
2,UAAS_LB,causal-graph1,230512,female,31,English,United States of America,Left,R569505437620gxrw,1.0,19263.15500000061,,AND_Gate,Unrolled,Bottom,Squares,Event,,A,A,nodeA7
2,UBAS_LB,causal-graph1,245596,female,31,English,United States of America,Left,R569505437620gxrw,1.0,13752.444999998259,,AND_Gate,Unrolled,Bottom,Squares,Event,,B,A,nodeB4
2,UBBS_LT,causal-graph1,279744,female,31,English,United States of America,Left,R569505437620gxrw,2.0,17673.240000000107,,AND_Gate,Unrolled,Top,Squares,Event,,B,B,nodeA37
2,UABS_LT,causal-graph1,294871,female,31,English,United States of America,Left,R569505437620gxrw,1.0,13511.215000002296,,AND_Gate,Unrolled,Top,Squares,Event,,A,B,nodeB7
2,UBS_LT,causal-graph1,307511,female,31,English,United States of America,Left,R569505437620gxrw,1.0,10898.105000000214,,AND_Gate,Unrolled,Top,Squares,State,B,,A,nodeA20
2,instruction,causal-graph1,309293,female,31,English,United States of America,Left,R569505437620gxrw,,,,,,,,,,,,
2,comment,survey-text,347353,female,31,English,United States of America,Left,R569505437620gxrw,,38041.56999999756,"{""Q0"":""I thought this experiment was very interesting.  Also, the instructions were clear and I had no technical problems.""}",,,,,,,,,
3,instruction,causal-graph1,5119,male,47,english,United States of America,Left,R568774137640gxrw,,,,,,,,,,,,
3,instruction,causal-graph1,6822,male,47,english,United States of America,Left,R568774137640gxrw,,,,,,,,,,,,
3,instruction,causal-graph1,12567,male,47,english,United States of America,Left,R568774137640gxrw,1.0,,,,,,,,,,,
3,instruction,causal-graph1,14695,male,47,english,United States of America,Left,R568774137640gxrw,,,,,,,,,,,,
3,instruction,causal-graph1,22695,male,47,english,United States of America,Left,R568774137640gxrw,1.0,,,,,,,,,,,
3,instruction,causal-graph1,24967,male,47,english,United States of America,Left,R568774137640gxrw,,,,,,,,,,,,
3,instruction,survey-multi-choice,32080,male,47,english,United States of America,Left,R568774137640gxrw,,,"{""Q0"":"" To decide what caused the activation of G"",""Q1"":"" A detector becomes active if it absorbs a radioactive particle or receives input from an active detector"",""Q2"":"" G becomes active if all of its inputs are active""}",,,,,,,,,
3,instruction,causal-graph1,34562,male,47,english,United States of America,Left,R568774137640gxrw,,,,,,,,,,,,
3,UBS_LB,causal-graph1,52695,male,47,english,United States of America,Left,R568774137640gxrw,1.0,15782.000000122936,,AND_Gate,Unrolled,Bottom,Squares,State,B,,A,nodeA11
3,UABS_LB,causal-graph1,71686,male,47,english,United States of America,Left,R568774137640gxrw,1.0,15288.000000175089,,AND_Gate,Unrolled,Bottom,Squares,Event,,A,B,nodeA4
3,UBAS_LB,causal-graph1,88119,male,47,english,United States of America,Left,R568774137640gxrw,1.0,12807.999999728054,,AND_Gate,Unrolled,Bottom,Squares,Event,,B,A,nodeA4
3,UAS_LB,causal-graph1,100847,male,47,english,United States of America,Left,R568774137640gxrw,1.0,9239.999999757856,,AND_Gate,Unrolled,Bottom,Squares,State,A,,B,nodeB2
3,UAAS_LB,causal-graph1,117984,male,47,english,United States of America,Left,R568774137640gxrw,1.0,14194.000000134109,,AND_Gate,Unrolled,Bottom,Squares,Event,,A,A,nodeB3
3,chainS_L,causal-graph1,135166,male,47,english,United States of America,Left,R568774137640gxrw,1.0,13313.000000081956,,ChainS,,,,,,,,nodeB4
3,UBBS_LB,causal-graph1,147006,male,47,english,United States of America,Left,R568774137640gxrw,1.0,9307.000000029802,,AND_Gate,Unrolled,Bottom,Squares,Event,,B,B,nodeA2
3,instruction,causal-graph1,150232,male,47,english,United States of America,Left,R568774137640gxrw,,,,,,,,,,,,
3,comment,survey-text,163198,male,47,english,United States of America,Left,R568774137640gxrw,,12944.000000134109,"{""Q0"":""nothing good task""}",,,,,,,,,
4,instruction,causal-graph1,6543,male,46,english,United States of America,Right,R562699637900gxrw,,,,,,,,,,,,
4,instruction,causal-graph1,10934,male,46,english,United States of America,Right,R562699637900gxrw,,,,,,,,,,,,
4,instruction,causal-graph1,26540,male,46,english,United States of America,Right,R562699637900gxrw,1.0,,,,,,,,,,,
4,instruction,causal-graph1,38204,male,46,english,United States of America,Right,R562699637900gxrw,,,,,,,,,,,,
4,instruction,causal-graph1,55040,male,46,english,United States of America,Right,R562699637900gxrw,1.0,,,,,,,,,,,
4,instruction,causal-graph1,61370,male,46,english,United States of America,Right,R562699637900gxrw,,,,,,,,,,,,
4,instruction,survey-multi-choice,99993,male,46,english,United States of America,Right,R562699637900gxrw,,,"{""Q0"":"" To decide what caused the activation of G"",""Q1"":"" A detector becomes active if it absorbs a radioactive particle or receives input from an active detector"",""Q2"":"" G becomes active if all of its inputs are active""}",,,,,,,,,
4,instruction,causal-graph1,102242,male,46,english,United States of America,Right,R562699637900gxrw,,,,,,,,,,,,
4,UBAS_RT,causal-graph1,117694,male,46,english,United States of America,Right,R562699637900gxrw,1.0,14154.129999922588,,AND_Gate,Unrolled,Top,Squares,Event,,B,A,nodeB4
4,UABS_RT,causal-graph1,142294,male,46,english,United States of America,Right,R562699637900gxrw,1.0,19599.285000003878,,AND_Gate,Unrolled,Top,Squares,Event,,A,B,nodeB7
4,UAS_RB,causal-graph1,155453,male,46,english,United States of America,Right,R562699637900gxrw,1.0,10543.145000003278,,AND_Gate,Unrolled,Bottom,Squares,State,A,,B,nodeB7
4,UBS_RB,causal-graph1,168713,male,46,english,United States of America,Right,R562699637900gxrw,1.0,11588.284999830646,,AND_Gate,Unrolled,Bottom,Squares,State,B,,A,nodeA20
4,chainS_R,causal-graph1,180711,male,46,english,United States of America,Right,R562699637900gxrw,1.0,10768.23000004515,,ChainS,,,,,,,,nodeB9
4,UAAS_RT,causal-graph1,195314,male,46,english,United States of America,Right,R562699637900gxrw,1.0,13201.765000121668,,AND_Gate,Unrolled,Top,Squares,Event,,A,A,nodeA7
4,UBBS_RB,causal-graph1,207404,male,46,english,United States of America,Right,R562699637900gxrw,1.0,10593.39000005275,,AND_Gate,Unrolled,Bottom,Squares,Event,,B,B,nodeB2
4,instruction,causal-graph1,208985,male,46,english,United States of America,Right,R562699637900gxrw,,,,,,,,,,,,
4,comment,survey-text,212545,male,46,english,United States of America,Right,R562699637900gxrw,,3554.6849998645484,"{""Q0"":""""}",,,,,,,,,
5,instruction,causal-graph1,9769,male,49,ENGLISH,United States of America,Right,R562050947820gxrw,,,,,,,,,,,,
5,instruction,causal-graph1,18258,male,49,ENGLISH,United States of America,Right,R562050947820gxrw,,,,,,,,,,,,
5,instruction,causal-graph1,34902,male,49,ENGLISH,United States of America,Right,R562050947820gxrw,1.0,,,,,,,,,,,
5,instruction,causal-graph1,40767,male,49,ENGLISH,United States of America,Right,R562050947820gxrw,,,,,,,,,,,,
5,instruction,causal-graph1,62489,male,49,ENGLISH,United States of America,Right,R562050947820gxrw,1.0,,,,,,,,,,,
5,instruction,causal-graph1,78766,male,49,ENGLISH,United States of America,Right,R562050947820gxrw,,,,,,,,,,,,
5,instruction,survey-multi-choice,143560,male,49,ENGLISH,United States of America,Right,R562050947820gxrw,,,"{""Q0"":"" To decide what caused the activation of G"",""Q1"":"" A detector becomes active if it absorbs a radioactive particle or receives input from an active detector"",""Q2"":"" G becomes active if all of its inputs are active""}",,,,,,,,,
5,instruction,causal-graph1,168618,male,49,ENGLISH,United States of America,Right,R562050947820gxrw,,,,,,,,,,,,
5,UABS_RB,causal-graph1,295238,male,49,ENGLISH,United States of America,Right,R562050947820gxrw,3.0,44601.00000002421,,AND_Gate,Unrolled,Bottom,Squares,Event,,A,B,nodeB20
5,UBBS_RB,causal-graph1,321520,male,49,ENGLISH,United States of America,Right,R562050947820gxrw,1.0,17721.999999834225,,AND_Gate,Unrolled,Bottom,Squares,Event,,B,B,nodeB20
5,UAAS_RT,causal-graph1,352526,male,49,ENGLISH,United States of America,Right,R562050947820gxrw,1.0,24225.00000009313,,AND_Gate,Unrolled,Top,Squares,Event,,A,A,nodeB20
5,UBAS_RB,causal-graph1,380244,male,49,ENGLISH,United States of America,Right,R562050947820gxrw,1.0,22466.999999945987,,AND_Gate,Unrolled,Bottom,Squares,Event,,B,A,nodeA41
5,chainS_R,causal-graph1,408651,male,49,ENGLISH,United States of America,Right,R562050947820gxrw,1.0,20251.999999862164,,ChainS,,,,,,,,nodeB20
5,UAS_RT,causal-graph1,435624,male,49,ENGLISH,United States of America,Right,R562050947820gxrw,1.0,19351.999999955297,,AND_Gate,Unrolled,Top,Squares,State,A,,B,nodeB20
5,UBS_RT,causal-graph1,460564,male,49,ENGLISH,United States of America,Right,R562050947820gxrw,1.0,17795.999999856576,,AND_Gate,Unrolled,Top,Squares,State,B,,A,nodeB20
5,instruction,causal-graph1,471564,male,49,ENGLISH,United States of America,Right,R562050947820gxrw,,,,,,,,,,,,
5,comment,survey-text,503429,male,49,ENGLISH,United States of America,Right,R562050947820gxrw,,31715.00000008382,"{""Q0"":""VErY inTErEsTIng.goOD""}",,,,,,,,,
6,instruction,causal-graph1,10328,female,52,English,United States of America,Right,R562955957430gxrw,,,,,,,,,,,,
6,instruction,causal-graph1,16699,female,52,English,United States of America,Right,R562955957430gxrw,,,,,,,,,,,,
6,instruction,causal-graph1,40942,female,52,English,United States of America,Right,R562955957430gxrw,1.0,,,,,,,,,,,
6,instruction,causal-graph1,62702,female,52,English,United States of America,Right,R562955957430gxrw,,,,,,,,,,,,
6,instruction,causal-graph1,80493,female,52,English,United States of America,Right,R562955957430gxrw,1.0,,,,,,,,,,,
6,instruction,causal-graph1,94979,female,52,English,United States of America,Right,R562955957430gxrw,,,,,,,,,,,,
6,instruction,survey-multi-choice,146234,female,52,English,United States of America,Right,R562955957430gxrw,,,"{""Q0"":"" To decide what caused the activation of G"",""Q1"":"" A detector becomes active if it receives input from an active detector"",""Q2"":"" G becomes active if all of its inputs are active""}",,,,,,,,,
6,instruction,causal-graph1,150307,female,52,English,United States of America,Right,R562955957430gxrw,,,,,,,,,,,,
6,instruction,causal-graph1,152445,female,52,English,United States of America,Right,R562955957430gxrw,,,,,,,,,,,,
6,instruction,causal-graph1,156389,female,52,English,United States of America,Right,R562955957430gxrw,,,,,,,,,,,,
6,instruction,causal-graph1,170880,female,52,English,United States of America,Right,R562955957430gxrw,1.0,,,,,,,,,,,
6,instruction,causal-graph1,172448,female,52,English,United States of America,Right,R562955957430gxrw,,,,,,,,,,,,
6,instruction,causal-graph1,178758,female,52,English,United States of America,Right,R562955957430gxrw,1.0,,,,,,,,,,,
6,instruction,causal-graph1,180372,female,52,English,United States of America,Right,R562955957430gxrw,,,,,,,,,,,,
6,instruction,survey-multi-choice,190982,female,52,English,United States of America,Right,R562955957430gxrw,,,"{""Q0"":"" To decide what caused the activation of G"",""Q1"":"" A detector becomes active if it absorbs a radioactive particle"",""Q2"":"" G becomes active if all of its inputs are active""}",,,,,,,,,
6,instruction,causal-graph1,195434,female,52,English,United States of America,Right,R562955957430gxrw,,,,,,,,,,,,
6,instruction,causal-graph1,199161,female,52,English,United States of America,Right,R562955957430gxrw,,,,,,,,,,,,
6,instruction,causal-graph1,201329,female,52,English,United States of America,Right,R562955957430gxrw,,,,,,,,,,,,
6,instruction,causal-graph1,211347,female,52,English,United States of America,Right,R562955957430gxrw,1.0,,,,,,,,,,,
6,instruction,causal-graph1,218751,female,52,English,United States of America,Right,R562955957430gxrw,,,,,,,,,,,,
6,instruction,causal-graph1,232849,female,52,English,United States of America,Right,R562955957430gxrw,1.0,,,,,,,,,,,
6,instruction,causal-graph1,234617,female,52,English,United States of America,Right,R562955957430gxrw,,,,,,,,,,,,
6,instruction,survey-multi-choice,257490,female,52,English,United States of America,Right,R562955957430gxrw,,,"{""Q0"":"" To decide what caused the activation of G"",""Q1"":"" A detector becomes active if it absorbs a radioactive particle or receives input from an active detector"",""Q2"":"" G becomes active if all of its inputs are active""}",,,,,,,,,
6,instruction,causal-graph1,265706,female,52,English,United States of America,Right,R562955957430gxrw,,,,,,,,,,,,
6,UAS_RB,causal-graph1,308844,female,52,English,United States of America,Right,R562955957430gxrw,2.0,27436.830000000544,,AND_Gate,Unrolled,Bottom,Squares,State,A,,B,nodeB6
6,UAAS_RT,causal-graph1,322197,female,52,English,United States of America,Right,R562955957430gxrw,1.0,10444.510000001172,,AND_Gate,Unrolled,Top,Squares,Event,,A,A,nodeA6
6,UBBS_RT,causal-graph1,346411,female,52,English,United States of America,Right,R562955957430gxrw,1.0,22220.059999999707,,AND_Gate,Unrolled,Top,Squares,Event,,B,B,nodeB1
6,UBS_RT,causal-graph1,360016,female,52,English,United States of America,Right,R562955957430gxrw,1.0,10712.265000000129,,AND_Gate,Unrolled,Top,Squares,State,B,,A,nodeA19
6,chainS_R,causal-graph1,370356,female,52,English,United States of America,Right,R562955957430gxrw,1.0,8412.500000000351,,ChainS,,,,,,,,nodeB8
6,UBAS_RT,causal-graph1,390035,female,52,English,United States of America,Right,R562955957430gxrw,1.0,17646.134999999078,,AND_Gate,Unrolled,Top,Squares,Event,,B,A,nodeB3
6,UABS_RB,causal-graph1,415171,female,52,English,United States of America,Right,R562955957430gxrw,1.0,23307.764999999552,,AND_Gate,Unrolled,Bottom,Squares,Event,,A,B,nodeB6
6,instruction,causal-graph1,418177,female,52,English,United States of America,Right,R562955957430gxrw,,,,,,,,,,,,
6,comment,survey-text,424350,female,52,English,United States of America,Right,R562955957430gxrw,,6162.630000000703,"{""Q0"":""""}",,,,,,,,,
7,instruction,causal-graph1,9258,male,32,English,United States of America,Left,R561811987830gxrw,,,,,,,,,,,,
7,instruction,causal-graph1,18654,male,32,English,United States of America,Left,R561811987830gxrw,,,,,,,,,,,,
7,instruction,causal-graph1,81358,male,32,English,United States of America,Left,R561811987830gxrw,1.0,,,,,,,,,,,
7,instruction,causal-graph1,84052,male,32,English,United States of America,Left,R561811987830gxrw,,,,,,,,,,,,
7,instruction,causal-graph1,93783,male,32,English,United States of America,Left,R561811987830gxrw,1.0,,,,,,,,,,,
7,instruction,causal-graph1,105342,male,32,English,United States of America,Left,R561811987830gxrw,,,,,,,,,,,,
7,instruction,survey-multi-choice,399988,male,32,English,United States of America,Left,R561811987830gxrw,,,"{""Q0"":"" To find out if the Gauge of Critical Moment (G) is activated or not"",""Q1"":"" A detector becomes active if it absorbs a radioactive particle or receives input from an active detector"",""Q2"":"" G becomes active if it absorbs a radioactive particle""}",,,,,,,,,
7,instruction,causal-graph1,412736,male,32,English,United States of America,Left,R561811987830gxrw,,,,,,,,,,,,
7,instruction,causal-graph1,415604,male,32,English,United States of America,Left,R561811987830gxrw,,,,,,,,,,,,
7,instruction,causal-graph1,418284,male,32,English,United States of America,Left,R561811987830gxrw,,,,,,,,,,,,
7,instruction,causal-graph1,426366,male,32,English,United States of America,Left,R561811987830gxrw,1.0,,,,,,,,,,,
7,instruction,causal-graph1,475375,male,32,English,United States of America,Left,R561811987830gxrw,,,,,,,,,,,,
7,instruction,causal-graph1,491064,male,32,English,United States of America,Left,R561811987830gxrw,1.0,,,,,,,,,,,
7,instruction,causal-graph1,493969,male,32,English,United States of America,Left,R561811987830gxrw,,,,,,,,,,,,
7,instruction,survey-multi-choice,527323,male,32,English,United States of America,Left,R561811987830gxrw,,,"{""Q0"":"" To decide what caused the activation of G"",""Q1"":"" A detector becomes active if it absorbs a radioactive particle"",""Q2"":"" G becomes active if all of its inputs are active""}",,,,,,,,,
7,instruction,causal-graph1,530818,male,32,English,United States of America,Left,R561811987830gxrw,,,,,,,,,,,,
7,instruction,causal-graph1,537484,male,32,English,United States of America,Left,R561811987830gxrw,,,,,,,,,,,,
7,instruction,causal-graph1,559571,male,32,English,United States of America,Left,R561811987830gxrw,,,,,,,,,,,,
7,instruction,causal-graph1,577359,male,32,English,United States of America,Left,R561811987830gxrw,1.0,,,,,,,,,,,
7,instruction,causal-graph1,588610,male,32,English,United States of America,Left,R561811987830gxrw,,,,,,,,,,,,
7,instruction,causal-graph1,603673,male,32,English,United States of America,Left,R561811987830gxrw,1.0,,,,,,,,,,,
7,instruction,causal-graph1,614538,male,32,English,United States of America,Left,R561811987830gxrw,,,,,,,,,,,,
7,instruction,survey-multi-choice,781293,male,32,English,United States of America,Left,R561811987830gxrw,,,"{""Q0"":"" To decide what caused the activation of G"",""Q1"":"" A detector becomes active if it absorbs a radioactive particle or receives input from an active detector"",""Q2"":"" G becomes active if all of its inputs are active""}",,,,,,,,,
7,instruction,causal-graph1,801712,male,32,English,United States of America,Left,R561811987830gxrw,,,,,,,,,,,,
7,UBBS_LT,causal-graph1,983826,male,32,English,United States of America,Left,R561811987830gxrw,3.0,53783.000000054024,,AND_Gate,Unrolled,Top,Squares,Event,,B,B,nodeA27
7,UAS_LB,causal-graph1,1026885,male,32,English,United States of America,Left,R561811987830gxrw,1.0,18888.00000003539,,AND_Gate,Unrolled,Bottom,Squares,State,A,,B,nodeA1
7,UABS_LT,causal-graph1,1070669,male,32,English,United States of America,Left,R561811987830gxrw,1.0,40350.99999979138,,AND_Gate,Unrolled,Top,Squares,Event,,A,B,nodeB5
7,UAAS_LB,causal-graph1,1090948,male,32,English,United States of America,Left,R561811987830gxrw,1.0,15364.000000059605,,AND_Gate,Unrolled,Bottom,Squares,Event,,A,A,nodeA6
7,UBAS_LT,causal-graph1,1124447,male,32,English,United States of America,Left,R561811987830gxrw,1.0,23029.99999979511,,AND_Gate,Unrolled,Top,Squares,Event,,B,A,nodeA1
7,chainS_L,causal-graph1,1174556,male,32,English,United States of America,Left,R561811987830gxrw,1.0,44314.99999994412,,ChainS,,,,,,,,nodeB2
7,UBS_LB,causal-graph1,1198185,male,32,English,United States of America,Left,R561811987830gxrw,1.0,20483.00000000745,,AND_Gate,Unrolled,Bottom,Squares,State,B,,A,nodeA18
7,instruction,causal-graph1,1205947,male,32,English,United States of America,Left,R561811987830gxrw,,,,,,,,,,,,
7,comment,survey-text,1214566,male,32,English,United States of America,Left,R561811987830gxrw,,8577.999999979509,"{""Q0"":""""}",,,,,,,,,
8,instruction,causal-graph1,179443,male,29,English,United States of America,Left,R569996927840gxrw,,,,,,,,,,,,
8,instruction,causal-graph1,209964,male,29,English,United States of America,Left,R569996927840gxrw,,,,,,,,,,,,
8,instruction,causal-graph1,218693,male,29,English,United States of America,Left,R569996927840gxrw,1.0,,,,,,,,,,,
8,instruction,causal-graph1,221796,male,29,English,United States of America,Left,R569996927840gxrw,,,,,,,,,,,,
8,instruction,causal-graph1,229798,male,29,English,United States of America,Left,R569996927840gxrw,1.0,,,,,,,,,,,
8,instruction,causal-graph1,232380,male,29,English,United States of America,Left,R569996927840gxrw,,,,,,,,,,,,
8,instruction,survey-multi-choice,271197,male,29,English,United States of America,Left,R569996927840gxrw,,,"{""Q0"":"" To decide what caused the activation of G"",""Q1"":"" A detector becomes active if it absorbs a radioactive particle or receives input from an active detector"",""Q2"":"" G becomes active if at least one of its inputs is active""}",,,,,,,,,
8,instruction,causal-graph1,279910,male,29,English,United States of America,Left,R569996927840gxrw,,,,,,,,,,,,
8,instruction,causal-graph1,282556,male,29,English,United States of America,Left,R569996927840gxrw,,,,,,,,,,,,
8,instruction,causal-graph1,291145,male,29,English,United States of America,Left,R569996927840gxrw,,,,,,,,,,,,
8,instruction,causal-graph1,309686,male,29,English,United States of America,Left,R569996927840gxrw,1.0,,,,,,,,,,,
8,instruction,causal-graph1,321948,male,29,English,United States of America,Left,R569996927840gxrw,,,,,,,,,,,,
8,instruction,causal-graph1,336108,male,29,English,United States of America,Left,R569996927840gxrw,1.0,,,,,,,,,,,
8,instruction,causal-graph1,338729,male,29,English,United States of America,Left,R569996927840gxrw,,,,,,,,,,,,
8,instruction,survey-multi-choice,383819,male,29,English,United States of America,Left,R569996927840gxrw,,,"{""Q0"":"" To decide what caused the activation of G"",""Q1"":"" A detector becomes active if it absorbs a radioactive particle or receives input from an active detector"",""Q2"":"" G becomes active if all of its inputs are active""}",,,,,,,,,
8,instruction,causal-graph1,388596,male,29,English,United States of America,Left,R569996927840gxrw,,,,,,,,,,,,
8,UAS_LT,causal-graph1,415376,male,29,English,United States of America,Left,R569996927840gxrw,1.0,23548.99999999907,,AND_Gate,Unrolled,Top,Squares,State,A,,B,nodeB5
8,chainS_L,causal-graph1,436642,male,29,English,United States of America,Left,R569996927840gxrw,1.0,17388.00000003539,,ChainS,,,,,,,,nodeB9
8,UAAS_LB,causal-graph1,454579,male,29,English,United States of America,Left,R569996927840gxrw,1.0,13001.000000047496,,AND_Gate,Unrolled,Bottom,Squares,Event,,A,A,nodeA21
8,UABS_LB,causal-graph1,472571,male,29,English,United States of America,Left,R569996927840gxrw,1.0,15376.999999978581,,AND_Gate,Unrolled,Bottom,Squares,Event,,A,B,nodeB6
8,UBS_LT,causal-graph1,486083,male,29,English,United States of America,Left,R569996927840gxrw,1.0,10853.999999933876,,AND_Gate,Unrolled,Top,Squares,State,B,,A,nodeA20
8,UBBS_LB,causal-graph1,502511,male,29,English,United States of America,Left,R569996927840gxrw,1.0,12361.000000033528,,AND_Gate,Unrolled,Bottom,Squares,Event,,B,B,nodeB2
8,UBAS_LB,causal-graph1,520105,male,29,English,United States of America,Left,R569996927840gxrw,1.0,14214.999999967406,,AND_Gate,Unrolled,Bottom,Squares,Event,,B,A,nodeB4
8,instruction,causal-graph1,522874,male,29,English,United States of America,Left,R569996927840gxrw,,,,,,,,,,,,
8,comment,survey-text,526230,male,29,English,United States of America,Left,R569996927840gxrw,,3341.9999999459833,"{""Q0"":""""}",,,,,,,,,
9,instruction,causal-graph1,5538,male,51,ENGLISH,United States of America,Right,R565668727290gxrw,,,,,,,,,,,,
9,instruction,causal-graph1,16377,male,51,ENGLISH,United States of America,Right,R565668727290gxrw,,,,,,,,,,,,
9,instruction,causal-graph1,26737,male,51,ENGLISH,United States of America,Right,R565668727290gxrw,1.0,,,,,,,,,,,
9,instruction,causal-graph1,30077,male,51,ENGLISH,United States of America,Right,R565668727290gxrw,,,,,,,,,,,,
9,instruction,causal-graph1,39458,male,51,ENGLISH,United States of America,Right,R565668727290gxrw,1.0,,,,,,,,,,,
9,instruction,causal-graph1,42897,male,51,ENGLISH,United States of America,Right,R565668727290gxrw,,,,,,,,,,,,
9,instruction,survey-multi-choice,61782,male,51,ENGLISH,United States of America,Right,R565668727290gxrw,,,"{""Q0"":"" To decide what caused the activation of G"",""Q1"":"" A detector becomes active if it absorbs a radioactive particle"",""Q2"":"" G becomes active if it absorbs a radioactive particle""}",,,,,,,,,
9,instruction,causal-graph1,67859,male,51,ENGLISH,United States of America,Right,R565668727290gxrw,,,,,,,,,,,,
9,instruction,causal-graph1,73539,male,51,ENGLISH,United States of America,Right,R565668727290gxrw,,,,,,,,,,,,
9,instruction,causal-graph1,76308,male,51,ENGLISH,United States of America,Right,R565668727290gxrw,,,,,,,,,,,,
9,instruction,causal-graph1,82999,male,51,ENGLISH,United States of America,Right,R565668727290gxrw,1.0,,,,,,,,,,,
9,instruction,causal-graph1,85848,male,51,ENGLISH,United States of America,Right,R565668727290gxrw,,,,,,,,,,,,
9,instruction,causal-graph1,93768,male,51,ENGLISH,United States of America,Right,R565668727290gxrw,1.0,,,,,,,,,,,
9,instruction,causal-graph1,97618,male,51,ENGLISH,United States of America,Right,R565668727290gxrw,,,,,,,,,,,,
9,instruction,survey-multi-choice,111083,male,51,ENGLISH,United States of America,Right,R565668727290gxrw,,,"{""Q0"":"" To decide what caused the activation of G"",""Q1"":"" A detector becomes active if it absorbs a radioactive particle"",""Q2"":"" G becomes active if all of its inputs are active""}",,,,,,,,,
9,instruction,causal-graph1,116068,male,51,ENGLISH,United States of America,Right,R565668727290gxrw,,,,,,,,,,,,
9,instruction,causal-graph1,119918,male,51,ENGLISH,United States of America,Right,R565668727290gxrw,,,,,,,,,,,,
9,instruction,causal-graph1,123158,male,51,ENGLISH,United States of America,Right,R565668727290gxrw,,,,,,,,,,,,
9,instruction,causal-graph1,129538,male,51,ENGLISH,United States of America,Right,R565668727290gxrw,1.0,,,,,,,,,,,
9,instruction,causal-graph1,132488,male,51,ENGLISH,United States of America,Right,R565668727290gxrw,,,,,,,,,,,,
9,instruction,causal-graph1,141206,male,51,ENGLISH,United States of America,Right,R565668727290gxrw,1.0,,,,,,,,,,,
9,instruction,causal-graph1,147009,male,51,ENGLISH,United States of America,Right,R565668727290gxrw,,,,,,,,,,,,
9,instruction,survey-multi-choice,166208,male,51,ENGLISH,United States of America,Right,R565668727290gxrw,,,"{""Q0"":"" To decide what caused the activation of G"",""Q1"":"" A detector becomes active if it absorbs a radioactive particle"",""Q2"":"" G becomes active if it absorbs a radioactive particle""}",,,,,,,,,
9,instruction,causal-graph1,173108,male,51,ENGLISH,United States of America,Right,R565668727290gxrw,,,,,,,,,,,,
9,instruction,causal-graph1,176689,male,51,ENGLISH,United States of America,Right,R565668727290gxrw,,,,,,,,,,,,
9,instruction,causal-graph1,179708,male,51,ENGLISH,United States of America,Right,R565668727290gxrw,,,,,,,,,,,,
9,instruction,causal-graph1,186278,male,51,ENGLISH,United States of America,Right,R565668727290gxrw,1.0,,,,,,,,,,,
9,instruction,causal-graph1,188637,male,51,ENGLISH,United States of America,Right,R565668727290gxrw,,,,,,,,,,,,
9,instruction,causal-graph1,201108,male,51,ENGLISH,United States of America,Right,R565668727290gxrw,2.0,,,,,,,,,,,
9,instruction,causal-graph1,205228,male,51,ENGLISH,United States of America,Right,R565668727290gxrw,,,,,,,,,,,,
9,instruction,survey-multi-choice,219708,male,51,ENGLISH,United States of America,Right,R565668727290gxrw,,,"{""Q0"":"" To decide what caused the activation of G"",""Q1"":"" A detector becomes active if it absorbs a radioactive particle"",""Q2"":"" G becomes active if it absorbs a radioactive particle""}",,,,,,,,,
9,instruction,causal-graph1,258818,male,51,ENGLISH,United States of America,Right,R565668727290gxrw,,,,,,,,,,,,
9,instruction,causal-graph1,262298,male,51,ENGLISH,United States of America,Right,R565668727290gxrw,,,,,,,,,,,,
9,instruction,causal-graph1,265027,male,51,ENGLISH,United States of America,Right,R565668727290gxrw,,,,,,,,,,,,
9,instruction,causal-graph1,277649,male,51,ENGLISH,United States of America,Right,R565668727290gxrw,2.0,,,,,,,,,,,
9,instruction,causal-graph1,280049,male,51,ENGLISH,United States of America,Right,R565668727290gxrw,,,,,,,,,,,,
9,instruction,causal-graph1,292440,male,51,ENGLISH,United States of America,Right,R565668727290gxrw,1.0,,,,,,,,,,,
9,instruction,causal-graph1,295999,male,51,ENGLISH,United States of America,Right,R565668727290gxrw,,,,,,,,,,,,
9,instruction,survey-multi-choice,651453,male,51,ENGLISH,United States of America,Right,R565668727290gxrw,,,"{""Q0"":"" To decide what caused the activation of each detector"",""Q1"":"" A detector becomes active if it absorbs a radioactive particle"",""Q2"":"" G becomes active if it absorbs a radioactive particle""}",,,,,,,,,
9,instruction,causal-graph1,731818,male,51,ENGLISH,United States of America,Right,R565668727290gxrw,,,,,,,,,,,,
9,instruction,causal-graph1,746595,male,51,ENGLISH,United States of America,Right,R565668727290gxrw,,,,,,,,,,,,
9,instruction,causal-graph1,754718,male,51,ENGLISH,United States of America,Right,R565668727290gxrw,,,,,,,,,,,,
9,instruction,causal-graph1,793499,male,51,ENGLISH,United States of America,Right,R565668727290gxrw,2.0,,,,,,,,,,,
9,instruction,causal-graph1,814818,male,51,ENGLISH,United States of America,Right,R565668727290gxrw,,,,,,,,,,,,
9,instruction,causal-graph1,839528,male,51,ENGLISH,United States of America,Right,R565668727290gxrw,1.0,,,,,,,,,,,
9,instruction,causal-graph1,855039,male,51,ENGLISH,United States of America,Right,R565668727290gxrw,,,,,,,,,,,,
9,instruction,survey-multi-choice,993760,male,51,ENGLISH,United States of America,Right,R565668727290gxrw,,,"{""Q0"":"" To decide what caused the activation of G"",""Q1"":"" A detector becomes active if it absorbs a radioactive particle"",""Q2"":"" G becomes active if all of its inputs are active""}",,,,,,,,,
9,instruction,causal-graph1,998208,male,51,ENGLISH,United States of America,Right,R565668727290gxrw,,,,,,,,,,,,
9,instruction,causal-graph1,1000948,male,51,ENGLISH,United States of America,Right,R565668727290gxrw,,,,,,,,,,,,
9,instruction,causal-graph1,1003539,male,51,ENGLISH,United States of America,Right,R565668727290gxrw,,,,,,,,,,,,
9,instruction,causal-graph1,1013968,male,51,ENGLISH,United States of America,Right,R565668727290gxrw,2.0,,,,,,,,,,,
9,instruction,causal-graph1,1018398,male,51,ENGLISH,United States of America,Right,R565668727290gxrw,,,,,,,,,,,,
9,instruction,causal-graph1,1031429,male,51,ENGLISH,United States of America,Right,R565668727290gxrw,1.0,,,,,,,,,,,
9,instruction,causal-graph1,1036538,male,51,ENGLISH,United States of America,Right,R565668727290gxrw,,,,,,,,,,,,
9,instruction,survey-multi-choice,1140018,male,51,ENGLISH,United States of America,Right,R565668727290gxrw,,,"{""Q0"":"" To decide what caused the activation of G"",""Q1"":"" A detector becomes active if it absorbs a radioactive particle"",""Q2"":"" G becomes active if all of its inputs are active""}",,,,,,,,,
9,instruction,causal-graph1,1145328,male,51,ENGLISH,United States of America,Right,R565668727290gxrw,,,,,,,,,,,,
9,instruction,causal-graph1,1148788,male,51,ENGLISH,United States of America,Right,R565668727290gxrw,,,,,,,,,,,,
9,instruction,causal-graph1,1151657,male,51,ENGLISH,United States of America,Right,R565668727290gxrw,,,,,,,,,,,,
9,instruction,causal-graph1,1157929,male,51,ENGLISH,United States of America,Right,R565668727290gxrw,1.0,,,,,,,,,,,
9,instruction,causal-graph1,1160338,male,51,ENGLISH,United States of America,Right,R565668727290gxrw,,,,,,,,,,,,
9,instruction,causal-graph1,1172777,male,51,ENGLISH,United States of America,Right,R565668727290gxrw,1.0,,,,,,,,,,,
9,instruction,causal-graph1,1175787,male,51,ENGLISH,United States of America,Right,R565668727290gxrw,,,,,,,,,,,,
9,instruction,survey-multi-choice,1261658,male,51,ENGLISH,United States of America,Right,R565668727290gxrw,,,"{""Q0"":"" To decide what caused the activation of G"",""Q1"":"" A detector becomes active if it absorbs a radioactive particle or receives input from an active detector"",""Q2"":"" G becomes active if all of its inputs are active""}",,,,,,,,,
9,instruction,causal-graph1,1276488,male,51,ENGLISH,United States of America,Right,R565668727290gxrw,,,,,,,,,,,,
9,UBS_RT,causal-graph1,1339149,male,51,ENGLISH,United States of America,Right,R565668727290gxrw,1.0,54734.99999986962,,AND_Gate,Unrolled,Top,Squares,State,B,,A,nodeB20
9,UAAS_RT,causal-graph1,1355828,male,51,ENGLISH,United States of America,Right,R565668727290gxrw,1.0,12121.999999973923,,AND_Gate,Unrolled,Top,Squares,Event,,A,A,nodeA6
9,UAS_RT,causal-graph1,1373609,male,51,ENGLISH,United States of America,Right,R565668727290gxrw,1.0,14486.999999731783,,AND_Gate,Unrolled,Top,Squares,State,A,,B,nodeB6
9,UBAS_RT,causal-graph1,1399010,male,51,ENGLISH,United States of America,Right,R565668727290gxrw,1.0,14543.00000006333,,AND_Gate,Unrolled,Top,Squares,Event,,B,A,nodeA24
9,UBBS_RT,causal-graph1,1412529,male,51,ENGLISH,United States of America,Right,R565668727290gxrw,1.0,10123.999999836087,,AND_Gate,Unrolled,Top,Squares,Event,,B,B,nodeB1
9,UABS_RT,causal-graph1,1432749,male,51,ENGLISH,United States of America,Right,R565668727290gxrw,1.0,15183.999999891968,,AND_Gate,Unrolled,Top,Squares,Event,,A,B,nodeA6
9,chainS_R,causal-graph1,1451000,male,51,ENGLISH,United States of America,Right,R565668727290gxrw,1.0,14245.00000011176,,ChainS,,,,,,,,nodeB8
9,instruction,causal-graph1,1454878,male,51,ENGLISH,United States of America,Right,R565668727290gxrw,,,,,,,,,,,,
9,comment,survey-text,1465910,male,51,ENGLISH,United States of America,Right,R565668727290gxrw,,10998.000000137838,"{""Q0"":""VERY NICE                                  ""}",,,,,,,,,
10,instruction,causal-graph1,34582,female,26,english,United States of America,Right,R561847387520gxrw,,,,,,,,,,,,
10,instruction,causal-graph1,38092,female,26,english,United States of America,Right,R561847387520gxrw,,,,,,,,,,,,
10,instruction,causal-graph1,53732,female,26,english,United States of America,Right,R561847387520gxrw,2.0,,,,,,,,,,,
10,instruction,causal-graph1,57995,female,26,english,United States of America,Right,R561847387520gxrw,,,,,,,,,,,,
10,instruction,causal-graph1,73419,female,26,english,United States of America,Right,R561847387520gxrw,1.0,,,,,,,,,,,
10,instruction,causal-graph1,77584,female,26,english,United States of America,Right,R561847387520gxrw,,,,,,,,,,,,
10,instruction,survey-multi-choice,113240,female,26,english,United States of America,Right,R561847387520gxrw,,,"{""Q0"":"" To find out if the Gauge of Critical Moment (G) is activated or not"",""Q1"":"" A detector becomes active if it absorbs a radioactive particle or receives input from an active detector"",""Q2"":"" G becomes active if all of its inputs are active""}",,,,,,,,,
10,instruction,causal-graph1,115864,female,26,english,United States of America,Right,R561847387520gxrw,,,,,,,,,,,,
10,instruction,causal-graph1,117144,female,26,english,United States of America,Right,R561847387520gxrw,,,,,,,,,,,,
10,instruction,causal-graph1,119965,female,26,english,United States of America,Right,R561847387520gxrw,,,,,,,,,,,,
10,instruction,causal-graph1,135155,female,26,english,United States of America,Right,R561847387520gxrw,1.0,,,,,,,,,,,
10,instruction,causal-graph1,151784,female,26,english,United States of America,Right,R561847387520gxrw,,,,,,,,,,,,
10,instruction,causal-graph1,166501,female,26,english,United States of America,Right,R561847387520gxrw,1.0,,,,,,,,,,,
10,instruction,causal-graph1,168589,female,26,english,United States of America,Right,R561847387520gxrw,,,,,,,,,,,,
10,instruction,survey-multi-choice,220047,female,26,english,United States of America,Right,R561847387520gxrw,,,"{""Q0"":"" To decide what caused the activation of G"",""Q1"":"" A detector becomes active if it absorbs a radioactive particle or receives input from an active detector"",""Q2"":"" G becomes active if all of its inputs are active""}",,,,,,,,,
10,instruction,causal-graph1,223577,female,26,english,United States of America,Right,R561847387520gxrw,,,,,,,,,,,,
10,UBAS_RT,causal-graph1,265954,female,26,english,United States of America,Right,R561847387520gxrw,3.0,13964.264999958688,,AND_Gate,Unrolled,Top,Squares,Event,,B,A,nodeA25
10,UAS_RB,causal-graph1,280062,female,26,english,United States of America,Right,R561847387520gxrw,1.0,10705.445000086911,,AND_Gate,Unrolled,Bottom,Squares,State,A,,B,nodeB7
10,UABS_RT,causal-graph1,298251,female,26,english,United States of America,Right,R561847387520gxrw,1.0,16239.494999987073,,AND_Gate,Unrolled,Top,Squares,Event,,A,B,nodeA40
10,chainS_R,causal-graph1,321912,female,26,english,United States of America,Right,R561847387520gxrw,1.0,8842.204999993555,,ChainS,,,,,,,,nodeB9
10,UAAS_RT,causal-graph1,334535,female,26,english,United States of America,Right,R561847387520gxrw,1.0,11127.890000003392,,AND_Gate,Unrolled,Top,Squares,Event,,A,A,nodeA22
10,UBS_RB,causal-graph1,346462,female,26,english,United States of America,Right,R561847387520gxrw,1.0,10326.890000025742,,AND_Gate,Unrolled,Bottom,Squares,State,B,,A,nodeA20
10,UBBS_RT,causal-graph1,376964,female,26,english,United States of America,Right,R561847387520gxrw,2.0,9008.590000099504,,AND_Gate,Unrolled,Top,Squares,Event,,B,B,nodeB10
10,instruction,causal-graph1,378733,female,26,english,United States of America,Right,R561847387520gxrw,,,,,,,,,,,,
10,comment,survey-text,390743,female,26,english,United States of America,Right,R561847387520gxrw,,12002.689999993892,"{""Q0"":""everything worked well, no issues""}",,,,,,,,,
11,instruction,causal-graph1,9266,male,65,English,United States of America,Right,R562382347220gxrw,,,,,,,,,,,,
11,instruction,causal-graph1,12344,male,65,English,United States of America,Right,R562382347220gxrw,,,,,,,,,,,,
11,instruction,causal-graph1,19155,male,65,English,United States of America,Right,R562382347220gxrw,1.0,,,,,,,,,,,
11,instruction,causal-graph1,20260,male,65,English,United States of America,Right,R562382347220gxrw,,,,,,,,,,,,
11,instruction,causal-graph1,26905,male,65,English,United States of America,Right,R562382347220gxrw,1.0,,,,,,,,,,,
11,instruction,causal-graph1,30666,male,65,English,United States of America,Right,R562382347220gxrw,,,,,,,,,,,,
11,instruction,survey-multi-choice,69509,male,65,English,United States of America,Right,R562382347220gxrw,,,"{""Q0"":"" To decide what caused the activation of G"",""Q1"":"" A detector becomes active if it absorbs a radioactive particle or receives input from an active detector"",""Q2"":"" G becomes active if all of its inputs are active""}",,,,,,,,,
11,instruction,causal-graph1,72384,male,65,English,United States of America,Right,R562382347220gxrw,,,,,,,,,,,,
11,UBBS_RB,causal-graph1,87885,male,65,English,United States of America,Right,R562382347220gxrw,1.0,14008.025000002815,,AND_Gate,Unrolled,Bottom,Squares,Event,,B,B,nodeB19
11,UABS_RT,causal-graph1,101361,male,65,English,United States of America,Right,R562382347220gxrw,1.0,12416.434999999185,,AND_Gate,Unrolled,Top,Squares,Event,,A,B,nodeB19
11,UBAS_RB,causal-graph1,115962,male,65,English,United States of America,Right,R562382347220gxrw,1.0,13542.789999999512,,AND_Gate,Unrolled,Bottom,Squares,Event,,B,A,nodeA41
11,UAS_RB,causal-graph1,126695,male,65,English,United States of America,Right,R562382347220gxrw,1.0,9546.360000000275,,AND_Gate,Unrolled,Bottom,Squares,State,A,,B,nodeB19
11,UAAS_RT,causal-graph1,139246,male,65,English,United States of America,Right,R562382347220gxrw,1.0,11389.474999996308,,AND_Gate,Unrolled,Top,Squares,Event,,A,A,nodeA41
11,chainS_R,causal-graph1,150090,male,65,English,United States of America,Right,R562382347220gxrw,1.0,9335.815000005823,,ChainS,,,,,,,,nodeB19
11,UBS_RB,causal-graph1,161543,male,65,English,United States of America,Right,R562382347220gxrw,1.0,9848.815000004834,,AND_Gate,Unrolled,Bottom,Squares,State,B,,A,nodeA41
11,instruction,causal-graph1,164268,male,65,English,United States of America,Right,R562382347220gxrw,,,,,,,,,,,,
11,comment,survey-text,167039,male,65,English,United States of America,Right,R562382347220gxrw,,2765.5400000003283,"{""Q0"":""""}",,,,,,,,,
12,instruction,causal-graph1,31512,female,48,english,United States of America,Left,R565972457960gxrw,,,,,,,,,,,,
12,instruction,causal-graph1,38573,female,48,english,United States of America,Left,R565972457960gxrw,,,,,,,,,,,,
12,instruction,causal-graph1,63094,female,48,english,United States of America,Left,R565972457960gxrw,1.0,,,,,,,,,,,
12,instruction,causal-graph1,87131,female,48,english,United States of America,Left,R565972457960gxrw,,,,,,,,,,,,
12,instruction,causal-graph1,116763,female,48,english,United States of America,Left,R565972457960gxrw,1.0,,,,,,,,,,,
12,instruction,causal-graph1,126417,female,48,english,United States of America,Left,R565972457960gxrw,,,,,,,,,,,,
12,instruction,survey-multi-choice,149290,female,48,english,United States of America,Left,R565972457960gxrw,,,"{""Q0"":"" To decide what caused the activation of G"",""Q1"":"" A detector becomes active if it absorbs a radioactive particle or receives input from an active detector"",""Q2"":"" G becomes active if at least one of its inputs is active""}",,,,,,,,,
12,instruction,causal-graph1,153581,female,48,english,United States of America,Left,R565972457960gxrw,,,,,,,,,,,,
12,instruction,causal-graph1,157992,female,48,english,United States of America,Left,R565972457960gxrw,,,,,,,,,,,,
12,instruction,causal-graph1,162843,female,48,english,United States of America,Left,R565972457960gxrw,,,,,,,,,,,,
12,instruction,causal-graph1,179641,female,48,english,United States of America,Left,R565972457960gxrw,1.0,,,,,,,,,,,
12,instruction,causal-graph1,187832,female,48,english,United States of America,Left,R565972457960gxrw,,,,,,,,,,,,
12,instruction,causal-graph1,199252,female,48,english,United States of America,Left,R565972457960gxrw,1.0,,,,,,,,,,,
12,instruction,causal-graph1,205088,female,48,english,United States of America,Left,R565972457960gxrw,,,,,,,,,,,,
12,instruction,survey-multi-choice,229922,female,48,english,United States of America,Left,R565972457960gxrw,,,"{""Q0"":"" To decide what caused the activation of G"",""Q1"":"" A detector becomes active if it absorbs a radioactive particle"",""Q2"":"" G becomes active if all of its inputs are active""}",,,,,,,,,
12,instruction,causal-graph1,234072,female,48,english,United States of America,Left,R565972457960gxrw,,,,,,,,,,,,
12,instruction,causal-graph1,237441,female,48,english,United States of America,Left,R565972457960gxrw,,,,,,,,,,,,
12,instruction,causal-graph1,242351,female,48,english,United States of America,Left,R565972457960gxrw,,,,,,,,,,,,
12,instruction,causal-graph1,256313,female,48,english,United States of America,Left,R565972457960gxrw,1.0,,,,,,,,,,,
12,instruction,causal-graph1,263841,female,48,english,United States of America,Left,R565972457960gxrw,,,,,,,,,,,,
12,instruction,causal-graph1,277702,female,48,english,United States of America,Left,R565972457960gxrw,1.0,,,,,,,,,,,
12,instruction,causal-graph1,285092,female,48,english,United States of America,Left,R565972457960gxrw,,,,,,,,,,,,
12,instruction,survey-multi-choice,308075,female,48,english,United States of America,Left,R565972457960gxrw,,,"{""Q0"":"" To find out if the Gauge of Critical Moment (G) is activated or not"",""Q1"":"" A detector becomes active if it absorbs a radioactive particle"",""Q2"":"" G becomes active if all of its inputs are active""}",,,,,,,,,
12,instruction,causal-graph1,311184,female,48,english,United States of America,Left,R565972457960gxrw,,,,,,,,,,,,
12,instruction,causal-graph1,313739,female,48,english,United States of America,Left,R565972457960gxrw,,,,,,,,,,,,
12,instruction,causal-graph1,316379,female,48,english,United States of America,Left,R565972457960gxrw,,,,,,,,,,,,
12,instruction,causal-graph1,330098,female,48,english,United States of America,Left,R565972457960gxrw,1.0,,,,,,,,,,,
12,instruction,causal-graph1,341865,female,48,english,United States of America,Left,R565972457960gxrw,,,,,,,,,,,,
12,instruction,causal-graph1,355385,female,48,english,United States of America,Left,R565972457960gxrw,1.0,,,,,,,,,,,
12,instruction,causal-graph1,362295,female,48,english,United States of America,Left,R565972457960gxrw,,,,,,,,,,,,
12,instruction,survey-multi-choice,400673,female,48,english,United States of America,Left,R565972457960gxrw,,,"{""Q0"":"" To decide what caused the activation of G"",""Q1"":"" A detector becomes active if it absorbs a radioactive particle or receives input from an active detector"",""Q2"":"" G becomes active if all of its inputs are active""}",,,,,,,,,
12,instruction,causal-graph1,404681,female,48,english,United States of America,Left,R565972457960gxrw,,,,,,,,,,,,
12,UBBS_LB,causal-graph1,434816,female,48,english,United States of America,Left,R565972457960gxrw,1.0,25852.0,,AND_Gate,Unrolled,Bottom,Squares,Event,,B,B,nodeB2
12,UAS_LB,causal-graph1,451942,female,48,english,United States of America,Left,R565972457960gxrw,1.0,13985.0,,AND_Gate,Unrolled,Bottom,Squares,State,A,,B,nodeB7
12,UBS_LT,causal-graph1,472563,female,48,english,United States of America,Left,R565972457960gxrw,1.0,16006.0,,AND_Gate,Unrolled,Top,Squares,State,B,,A,nodeA20
12,UBAS_LB,causal-graph1,494013,female,48,english,United States of America,Left,R565972457960gxrw,1.0,17994.0,,AND_Gate,Unrolled,Bottom,Squares,Event,,B,A,nodeB4
12,UAAS_LB,causal-graph1,515942,female,48,english,United States of America,Left,R565972457960gxrw,1.0,17578.0,,AND_Gate,Unrolled,Bottom,Squares,Event,,A,A,nodeA7
12,chainS_L,causal-graph1,531959,female,48,english,United States of America,Left,R565972457960gxrw,1.0,10761.0,,ChainS,,,,,,,,nodeB9
12,UABS_LT,causal-graph1,558613,female,48,english,United States of America,Left,R565972457960gxrw,1.0,20378.0,,AND_Gate,Unrolled,Top,Squares,Event,,A,B,nodeB7
12,instruction,causal-graph1,562493,female,48,english,United States of America,Left,R565972457960gxrw,,,,,,,,,,,,
12,comment,survey-text,572123,female,48,english,United States of America,Left,R565972457960gxrw,,9625.0,"{""Q0"":""no comments""}",,,,,,,,,
13,instruction,causal-graph1,55725,male,29,english,United States of America,Left,R564083597300gxrw,,,,,,,,,,,,
13,instruction,causal-graph1,63332,male,29,english,United States of America,Left,R564083597300gxrw,,,,,,,,,,,,
13,instruction,causal-graph1,116647,male,29,english,United States of America,Left,R564083597300gxrw,2.0,,,,,,,,,,,
13,instruction,causal-graph1,170785,male,29,english,United States of America,Left,R564083597300gxrw,,,,,,,,,,,,
13,instruction,causal-graph1,232066,male,29,english,United States of America,Left,R564083597300gxrw,2.0,,,,,,,,,,,
13,instruction,causal-graph1,240431,male,29,english,United States of America,Left,R564083597300gxrw,,,,,,,,,,,,
13,instruction,survey-multi-choice,262462,male,29,english,United States of America,Left,R564083597300gxrw,,,"{""Q0"":"" To decide what caused the activation of G"",""Q1"":"" A detector becomes active if it absorbs a radioactive particle"",""Q2"":"" G becomes active if at least one of its inputs is active""}",,,,,,,,,
13,instruction,causal-graph1,264931,male,29,english,United States of America,Left,R564083597300gxrw,,,,,,,,,,,,
13,instruction,causal-graph1,266895,male,29,english,United States of America,Left,R564083597300gxrw,,,,,,,,,,,,
13,instruction,causal-graph1,268418,male,29,english,United States of America,Left,R564083597300gxrw,,,,,,,,,,,,
13,instruction,causal-graph1,273436,male,29,english,United States of America,Left,R564083597300gxrw,1.0,,,,,,,,,,,
13,instruction,causal-graph1,646309,male,29,english,United States of America,Left,R564083597300gxrw,,,,,,,,,,,,
13,instruction,causal-graph1,657591,male,29,english,United States of America,Left,R564083597300gxrw,1.0,,,,,,,,,,,
13,instruction,causal-graph1,659405,male,29,english,United States of America,Left,R564083597300gxrw,,,,,,,,,,,,
13,instruction,survey-multi-choice,690140,male,29,english,United States of America,Left,R564083597300gxrw,,,"{""Q0"":"" To decide what caused the activation of G"",""Q1"":"" A detector becomes active if it receives input from an active detector"",""Q2"":"" G becomes active if all of its inputs are active""}",,,,,,,,,
13,instruction,causal-graph1,692085,male,29,english,United States of America,Left,R564083597300gxrw,,,,,,,,,,,,
13,instruction,causal-graph1,693264,male,29,english,United States of America,Left,R564083597300gxrw,,,,,,,,,,,,
13,instruction,causal-graph1,696107,male,29,english,United States of America,Left,R564083597300gxrw,,,,,,,,,,,,
13,instruction,causal-graph1,705956,male,29,english,United States of America,Left,R564083597300gxrw,1.0,,,,,,,,,,,
13,instruction,causal-graph1,708368,male,29,english,United States of America,Left,R564083597300gxrw,,,,,,,,,,,,
13,instruction,causal-graph1,717820,male,29,english,United States of America,Left,R564083597300gxrw,1.0,,,,,,,,,,,
13,instruction,causal-graph1,719436,male,29,english,United States of America,Left,R564083597300gxrw,,,,,,,,,,,,
13,instruction,survey-multi-choice,741482,male,29,english,United States of America,Left,R564083597300gxrw,,,"{""Q0"":"" To decide what caused the activation of each detector"",""Q1"":"" A detector becomes active if it absorbs a radioactive particle"",""Q2"":"" G becomes active if all of its inputs are active""}",,,,,,,,,
13,instruction,causal-graph1,743205,male,29,english,United States of America,Left,R564083597300gxrw,,,,,,,,,,,,
13,instruction,causal-graph1,744914,male,29,english,United States of America,Left,R564083597300gxrw,,,,,,,,,,,,
13,instruction,causal-graph1,746880,male,29,english,United States of America,Left,R564083597300gxrw,,,,,,,,,,,,
13,instruction,causal-graph1,756699,male,29,english,United States of America,Left,R564083597300gxrw,1.0,,,,,,,,,,,
13,instruction,causal-graph1,761235,male,29,english,United States of America,Left,R564083597300gxrw,,,,,,,,,,,,
13,instruction,causal-graph1,766967,male,29,english,United States of America,Left,R564083597300gxrw,1.0,,,,,,,,,,,
13,instruction,causal-graph1,768224,male,29,english,United States of America,Left,R564083597300gxrw,,,,,,,,,,,,
13,instruction,survey-multi-choice,781883,male,29,english,United States of America,Left,R564083597300gxrw,,,"{""Q0"":"" To find out if the Gauge of Critical Moment (G) is activated or not"",""Q1"":"" A detector becomes active if it absorbs a radioactive particle"",""Q2"":"" G becomes active if all of its inputs are active""}",,,,,,,,,
13,instruction,causal-graph1,788858,male,29,english,United States of America,Left,R564083597300gxrw,,,,,,,,,,,,
13,instruction,causal-graph1,791866,male,29,english,United States of America,Left,R564083597300gxrw,,,,,,,,,,,,
13,instruction,causal-graph1,794888,male,29,english,United States of America,Left,R564083597300gxrw,,,,,,,,,,,,
13,instruction,causal-graph1,806264,male,29,english,United States of America,Left,R564083597300gxrw,1.0,,,,,,,,,,,
13,instruction,causal-graph1,816585,male,29,english,United States of America,Left,R564083597300gxrw,,,,,,,,,,,,
13,instruction,causal-graph1,829476,male,29,english,United States of America,Left,R564083597300gxrw,1.0,,,,,,,,,,,
13,instruction,causal-graph1,838702,male,29,english,United States of America,Left,R564083597300gxrw,,,,,,,,,,,,
13,instruction,survey-multi-choice,908170,male,29,english,United States of America,Left,R564083597300gxrw,,,"{""Q0"":"" To decide what caused the activation of G"",""Q1"":"" A detector becomes active if it absorbs a radioactive particle"",""Q2"":"" G becomes active if all of its inputs are active""}",,,,,,,,,
13,instruction,causal-graph1,910510,male,29,english,United States of America,Left,R564083597300gxrw,,,,,,,,,,,,
13,instruction,causal-graph1,911613,male,29,english,United States of America,Left,R564083597300gxrw,,,,,,,,,,,,
13,instruction,causal-graph1,912387,male,29,english,United States of America,Left,R564083597300gxrw,,,,,,,,,,,,
13,instruction,causal-graph1,916671,male,29,english,United States of America,Left,R564083597300gxrw,1.0,,,,,,,,,,,
13,instruction,causal-graph1,917949,male,29,english,United States of America,Left,R564083597300gxrw,,,,,,,,,,,,
13,instruction,causal-graph1,923385,male,29,english,United States of America,Left,R564083597300gxrw,1.0,,,,,,,,,,,
13,instruction,causal-graph1,924641,male,29,english,United States of America,Left,R564083597300gxrw,,,,,,,,,,,,
13,instruction,survey-multi-choice,934342,male,29,english,United States of America,Left,R564083597300gxrw,,,"{""Q0"":"" To decide what caused the activation of G"",""Q1"":"" A detector becomes active if it absorbs a radioactive particle or receives input from an active detector"",""Q2"":"" G becomes active if all of its inputs are active""}",,,,,,,,,
13,instruction,causal-graph1,935895,male,29,english,United States of America,Left,R564083597300gxrw,,,,,,,,,,,,
13,UBBS_LT,causal-graph1,1000922,male,29,english,United States of America,Left,R564083597300gxrw,3.0,10206.355000031179,,AND_Gate,Unrolled,Top,Squares,Event,,B,B,nodeB2
13,UBS_LT,causal-graph1,1017160,male,29,english,United States of America,Left,R564083597300gxrw,1.0,13645.11499996297,,AND_Gate,Unrolled,Top,Squares,State,B,,A,nodeA20
13,UAAS_LT,causal-graph1,1056423,male,29,english,United States of America,Left,R564083597300gxrw,2.0,17070.424999925308,,AND_Gate,Unrolled,Top,Squares,Event,,A,A,nodeA7
13,UBAS_LB,causal-graph1,1075612,male,29,english,United States of America,Left,R564083597300gxrw,1.0,12189.835000084711,,AND_Gate,Unrolled,Bottom,Squares,Event,,B,A,nodeB4
13,UAS_LT,causal-graph1,1091026,male,29,english,United States of America,Left,R564083597300gxrw,1.0,12783.044999931008,,AND_Gate,Unrolled,Top,Squares,State,A,,B,nodeA41
13,UABS_LT,causal-graph1,1107843,male,29,english,United States of America,Left,R564083597300gxrw,1.0,14085.98500001244,,AND_Gate,Unrolled,Top,Squares,Event,,A,B,nodeA41
13,chainS_L,causal-graph1,1121044,male,29,english,United States of America,Left,R564083597300gxrw,1.0,10127.085000043737,,ChainS,,,,,,,,nodeB9
13,instruction,causal-graph1,1123087,male,29,english,United States of America,Left,R564083597300gxrw,,,,,,,,,,,,
13,comment,survey-text,1135773,male,29,english,United States of America,Left,R564083597300gxrw,,12680.524999974297,"{""Q0"":""Thank you. I hope my input is valuable. Have a nice day""}",,,,,,,,,
14,instruction,causal-graph1,3057,male,58,english,United States of America,Left,R565086757790gxrw,,,,,,,,,,,,
14,instruction,causal-graph1,8566,male,58,english,United States of America,Left,R565086757790gxrw,,,,,,,,,,,,
14,instruction,causal-graph1,16832,male,58,english,United States of America,Left,R565086757790gxrw,1.0,,,,,,,,,,,
14,instruction,causal-graph1,19660,male,58,english,United States of America,Left,R565086757790gxrw,,,,,,,,,,,,
14,instruction,causal-graph1,34222,male,58,english,United States of America,Left,R565086757790gxrw,2.0,,,,,,,,,,,
14,instruction,causal-graph1,39108,male,58,english,United States of America,Left,R565086757790gxrw,,,,,,,,,,,,
14,instruction,survey-multi-choice,62936,male,58,english,United States of America,Left,R565086757790gxrw,,,"{""Q0"":"" To decide what caused the activation of each detector"",""Q1"":"" A detector becomes active if it receives input from an active detector"",""Q2"":"" G becomes active if all of its inputs are active""}",,,,,,,,,
14,instruction,causal-graph1,65724,male,58,english,United States of America,Left,R565086757790gxrw,,,,,,,,,,,,
14,instruction,causal-graph1,68094,male,58,english,United States of America,Left,R565086757790gxrw,,,,,,,,,,,,
14,instruction,causal-graph1,70419,male,58,english,United States of America,Left,R565086757790gxrw,,,,,,,,,,,,
14,instruction,causal-graph1,77910,male,58,english,United States of America,Left,R565086757790gxrw,1.0,,,,,,,,,,,
14,instruction,causal-graph1,79950,male,58,english,United States of America,Left,R565086757790gxrw,,,,,,,,,,,,
14,instruction,causal-graph1,88492,male,58,english,United States of America,Left,R565086757790gxrw,1.0,,,,,,,,,,,
14,instruction,causal-graph1,90877,male,58,english,United States of America,Left,R565086757790gxrw,,,,,,,,,,,,
14,instruction,survey-multi-choice,97975,male,58,english,United States of America,Left,R565086757790gxrw,,,"{""Q0"":"" To find out if the Gauge of Critical Moment (G) is activated or not"",""Q1"":"" A detector becomes active if it absorbs a radioactive particle"",""Q2"":"" G becomes active if it absorbs a radioactive particle""}",,,,,,,,,
14,instruction,causal-graph1,100777,male,58,english,United States of America,Left,R565086757790gxrw,,,,,,,,,,,,
14,instruction,causal-graph1,103812,male,58,english,United States of America,Left,R565086757790gxrw,,,,,,,,,,,,
14,instruction,causal-graph1,108038,male,58,english,United States of America,Left,R565086757790gxrw,,,,,,,,,,,,
14,instruction,causal-graph1,116542,male,58,english,United States of America,Left,R565086757790gxrw,1.0,,,,,,,,,,,
14,instruction,causal-graph1,124054,male,58,english,United States of America,Left,R565086757790gxrw,,,,,,,,,,,,
14,instruction,causal-graph1,133053,male,58,english,United States of America,Left,R565086757790gxrw,1.0,,,,,,,,,,,
14,instruction,causal-graph1,135739,male,58,english,United States of America,Left,R565086757790gxrw,,,,,,,,,,,,
14,instruction,survey-multi-choice,157664,male,58,english,United States of America,Left,R565086757790gxrw,,,"{""Q0"":"" To decide what caused the activation of G"",""Q1"":"" A detector becomes active if it receives input from an active detector"",""Q2"":"" G becomes active if all of its inputs are active""}",,,,,,,,,
14,instruction,causal-graph1,160648,male,58,english,United States of America,Left,R565086757790gxrw,,,,,,,,,,,,
14,instruction,causal-graph1,163653,male,58,english,United States of America,Left,R565086757790gxrw,,,,,,,,,,,,
14,instruction,causal-graph1,167541,male,58,english,United States of America,Left,R565086757790gxrw,,,,,,,,,,,,
14,instruction,causal-graph1,180880,male,58,english,United States of America,Left,R565086757790gxrw,1.0,,,,,,,,,,,
14,instruction,causal-graph1,196327,male,58,english,United States of America,Left,R565086757790gxrw,,,,,,,,,,,,
14,instruction,causal-graph1,221533,male,58,english,United States of America,Left,R565086757790gxrw,1.0,,,,,,,,,,,
14,instruction,causal-graph1,230743,male,58,english,United States of America,Left,R565086757790gxrw,,,,,,,,,,,,
14,instruction,survey-multi-choice,386027,male,58,english,United States of America,Left,R565086757790gxrw,,,"{""Q0"":"" To decide what caused the activation of G"",""Q1"":"" A detector becomes active if it absorbs a radioactive particle or receives input from an active detector"",""Q2"":"" G becomes active if all of its inputs are active""}",,,,,,,,,
14,instruction,causal-graph1,389353,male,58,english,United States of America,Left,R565086757790gxrw,,,,,,,,,,,,
14,UABS_LT,causal-graph1,482882,male,58,english,United States of America,Left,R565086757790gxrw,1.0,90856.99999984354,,AND_Gate,Unrolled,Top,Squares,Event,,A,B,nodeB6
14,UAAS_LB,causal-graph1,513645,male,58,english,United States of America,Left,R565086757790gxrw,1.0,24639.999999897555,,AND_Gate,Unrolled,Bottom,Squares,Event,,A,A,nodeB2
14,chainS_L,causal-graph1,532894,male,58,english,United States of America,Left,R565086757790gxrw,1.0,15497.999999905005,,ChainS,,,,,,,,nodeB1
14,UAS_LT,causal-graph1,553039,male,58,english,United States of America,Left,R565086757790gxrw,1.0,16435.000000055883,,AND_Gate,Unrolled,Top,Squares,State,A,,B,nodeA1
14,UBBS_LT,causal-graph1,568838,male,58,english,United States of America,Left,R565086757790gxrw,1.0,12344.99999997206,,AND_Gate,Unrolled,Top,Squares,Event,,B,B,nodeA1
14,UBAS_LT,causal-graph1,587477,male,58,english,United States of America,Left,R565086757790gxrw,1.0,14000.0,,AND_Gate,Unrolled,Top,Squares,Event,,B,A,nodeA21
14,UBS_LT,causal-graph1,608779,male,58,english,United States of America,Left,R565086757790gxrw,1.0,17483.999999938533,,AND_Gate,Unrolled,Top,Squares,State,B,,A,nodeA18
14,instruction,causal-graph1,612115,male,58,english,United States of America,Left,R565086757790gxrw,,,,,,,,,,,,
14,comment,survey-text,636539,male,58,english,United States of America,Left,R565086757790gxrw,,24391.99999999255,"{""Q0"":""nothing good survey""}",,,,,,,,,
15,instruction,causal-graph1,4298,male,38,english,Armenia,Left,R561903857890gxrw,,,,,,,,,,,,
15,instruction,causal-graph1,10979,male,38,english,Armenia,Left,R561903857890gxrw,,,,,,,,,,,,
15,instruction,causal-graph1,22036,male,38,english,Armenia,Left,R561903857890gxrw,1.0,,,,,,,,,,,
15,instruction,causal-graph1,24517,male,38,english,Armenia,Left,R561903857890gxrw,,,,,,,,,,,,
15,instruction,causal-graph1,32003,male,38,english,Armenia,Left,R561903857890gxrw,1.0,,,,,,,,,,,
15,instruction,causal-graph1,34755,male,38,english,Armenia,Left,R561903857890gxrw,,,,,,,,,,,,
15,instruction,survey-multi-choice,39593,male,38,english,Armenia,Left,R561903857890gxrw,,,"{""Q0"":"" To decide what caused the activation of each detector"",""Q1"":"" A detector becomes active if it absorbs a radioactive particle or receives input from an active detector"",""Q2"":"" G becomes active if at least one of its inputs is active""}",,,,,,,,,
15,instruction,causal-graph1,43242,male,38,english,Armenia,Left,R561903857890gxrw,,,,,,,,,,,,
15,instruction,causal-graph1,79579,male,38,english,Armenia,Left,R561903857890gxrw,,,,,,,,,,,,
15,instruction,causal-graph1,90146,male,38,english,Armenia,Left,R561903857890gxrw,,,,,,,,,,,,
15,instruction,causal-graph1,122436,male,38,english,Armenia,Left,R561903857890gxrw,1.0,,,,,,,,,,,
15,instruction,causal-graph1,152418,male,38,english,Armenia,Left,R561903857890gxrw,,,,,,,,,,,,
15,instruction,causal-graph1,181411,male,38,english,Armenia,Left,R561903857890gxrw,1.0,,,,,,,,,,,
15,instruction,causal-graph1,185010,male,38,english,Armenia,Left,R561903857890gxrw,,,,,,,,,,,,
15,instruction,survey-multi-choice,218845,male,38,english,Armenia,Left,R561903857890gxrw,,,"{""Q0"":"" To decide what caused the activation of G"",""Q1"":"" A detector becomes active if it absorbs a radioactive particle"",""Q2"":"" G becomes active if all of its inputs are active""}",,,,,,,,,
15,instruction,causal-graph1,329332,male,38,english,Armenia,Left,R561903857890gxrw,,,,,,,,,,,,
15,instruction,causal-graph1,331187,male,38,english,Armenia,Left,R561903857890gxrw,,,,,,,,,,,,
15,instruction,causal-graph1,332845,male,38,english,Armenia,Left,R561903857890gxrw,,,,,,,,,,,,
15,instruction,causal-graph1,338310,male,38,english,Armenia,Left,R561903857890gxrw,1.0,,,,,,,,,,,
15,instruction,causal-graph1,340571,male,38,english,Armenia,Left,R561903857890gxrw,,,,,,,,,,,,
15,instruction,causal-graph1,348132,male,38,english,Armenia,Left,R561903857890gxrw,1.0,,,,,,,,,,,
15,instruction,causal-graph1,350415,male,38,english,Armenia,Left,R561903857890gxrw,,,,,,,,,,,,
15,instruction,survey-multi-choice,374760,male,38,english,Armenia,Left,R561903857890gxrw,,,"{""Q0"":"" To find out if the Gauge of Critical Moment (G) is activated or not"",""Q1"":"" A detector becomes active if it absorbs a radioactive particle or receives input from an active detector"",""Q2"":"" G becomes active if all of its inputs are active""}",,,,,,,,,
15,instruction,causal-graph1,386816,male,38,english,Armenia,Left,R561903857890gxrw,,,,,,,,,,,,
15,instruction,causal-graph1,388982,male,38,english,Armenia,Left,R561903857890gxrw,,,,,,,,,,,,
15,instruction,causal-graph1,390654,male,38,english,Armenia,Left,R561903857890gxrw,,,,,,,,,,,,
15,instruction,causal-graph1,396431,male,38,english,Armenia,Left,R561903857890gxrw,1.0,,,,,,,,,,,
15,instruction,causal-graph1,398944,male,38,english,Armenia,Left,R561903857890gxrw,,,,,,,,,,,,
15,instruction,causal-graph1,405704,male,38,english,Armenia,Left,R561903857890gxrw,1.0,,,,,,,,,,,
15,instruction,causal-graph1,407919,male,38,english,Armenia,Left,R561903857890gxrw,,,,,,,,,,,,
15,instruction,survey-multi-choice,421392,male,38,english,Armenia,Left,R561903857890gxrw,,,"{""Q0"":"" To decide what caused the activation of G"",""Q1"":"" A detector becomes active if it absorbs a radioactive particle or receives input from an active detector"",""Q2"":"" G becomes active if all of its inputs are active""}",,,,,,,,,
15,instruction,causal-graph1,426390,male,38,english,Armenia,Left,R561903857890gxrw,,,,,,,,,,,,
15,UAAS_LB,causal-graph1,479952,male,38,english,Armenia,Left,R561903857890gxrw,2.0,24964.000000036318,,AND_Gate,Unrolled,Bottom,Squares,Event,,A,A,nodeA32
15,chainS_L,causal-graph1,493904,male,38,english,Armenia,Left,R561903857890gxrw,1.0,9744.999999995343,,ChainS,,,,,,,,nodeB16
15,UABS_LT,causal-graph1,510600,male,38,english,Armenia,Left,R561903857890gxrw,1.0,13286.000000021888,,AND_Gate,Unrolled,Top,Squares,Event,,A,B,nodeB13
15,UAS_LT,causal-graph1,524166,male,38,english,Armenia,Left,R561903857890gxrw,1.0,10863.000000012109,,AND_Gate,Unrolled,Top,Squares,State,A,,B,nodeB13
15,UBAS_LT,causal-graph1,541873,male,38,english,Armenia,Left,R561903857890gxrw,1.0,15071.999999985565,,AND_Gate,Unrolled,Top,Squares,Event,,B,A,nodeB20
15,UBBS_LB,causal-graph1,565233,male,38,english,Armenia,Left,R561903857890gxrw,1.0,20197.99999997485,,AND_Gate,Unrolled,Bottom,Squares,Event,,B,B,nodeB20
15,UBS_LB,causal-graph1,580412,male,38,english,Armenia,Left,R561903857890gxrw,1.0,12746.999999973923,,AND_Gate,Unrolled,Bottom,Squares,State,B,,A,nodeB20
15,instruction,causal-graph1,584712,male,38,english,Armenia,Left,R561903857890gxrw,,,,,,,,,,,,
15,comment,survey-text,595415,male,38,english,Armenia,Left,R561903857890gxrw,,10677.000000025146,"{""Q0"":""good""}",,,,,,,,,
16,instruction,causal-graph1,4286,male,61,english,United States of America,Left,R564292257260gxrw,,,,,,,,,,,,
16,instruction,causal-graph1,8324,male,61,english,United States of America,Left,R564292257260gxrw,,,,,,,,,,,,
16,instruction,causal-graph1,16389,male,61,english,United States of America,Left,R564292257260gxrw,1.0,,,,,,,,,,,
16,instruction,causal-graph1,18980,male,61,english,United States of America,Left,R564292257260gxrw,,,,,,,,,,,,
16,instruction,causal-graph1,26444,male,61,english,United States of America,Left,R564292257260gxrw,1.0,,,,,,,,,,,
16,instruction,causal-graph1,32261,male,61,english,United States of America,Left,R564292257260gxrw,,,,,,,,,,,,
16,instruction,survey-multi-choice,41493,male,61,english,United States of America,Left,R564292257260gxrw,,,"{""Q0"":"" To find out if the Gauge of Critical Moment (G) is activated or not"",""Q1"":"" A detector becomes active if it receives input from an active detector"",""Q2"":"" G becomes active if it absorbs a radioactive particle""}",,,,,,,,,
16,instruction,causal-graph1,45013,male,61,english,United States of America,Left,R564292257260gxrw,,,,,,,,,,,,
16,instruction,causal-graph1,47773,male,61,english,United States of America,Left,R564292257260gxrw,,,,,,,,,,,,
16,instruction,causal-graph1,52580,male,61,english,United States of America,Left,R564292257260gxrw,,,,,,,,,,,,
16,instruction,causal-graph1,58757,male,61,english,United States of America,Left,R564292257260gxrw,1.0,,,,,,,,,,,
16,instruction,causal-graph1,61830,male,61,english,United States of America,Left,R564292257260gxrw,,,,,,,,,,,,
16,instruction,causal-graph1,69797,male,61,english,United States of America,Left,R564292257260gxrw,1.0,,,,,,,,,,,
16,instruction,causal-graph1,72861,male,61,english,United States of America,Left,R564292257260gxrw,,,,,,,,,,,,
16,instruction,survey-multi-choice,79661,male,61,english,United States of America,Left,R564292257260gxrw,,,"{""Q0"":"" To find out if the Gauge of Critical Moment (G) is activated or not"",""Q1"":"" A detector becomes active if it receives input from an active detector"",""Q2"":"" G becomes active if at least one of its inputs is active""}",,,,,,,,,
16,instruction,causal-graph1,83485,male,61,english,United States of America,Left,R564292257260gxrw,,,,,,,,,,,,
16,instruction,causal-graph1,86189,male,61,english,United States of America,Left,R564292257260gxrw,,,,,,,,,,,,
16,instruction,causal-graph1,88917,male,61,english,United States of America,Left,R564292257260gxrw,,,,,,,,,,,,
16,instruction,causal-graph1,95853,male,61,english,United States of America,Left,R564292257260gxrw,1.0,,,,,,,,,,,
16,instruction,causal-graph1,97973,male,61,english,United States of America,Left,R564292257260gxrw,,,,,,,,,,,,
16,instruction,causal-graph1,106302,male,61,english,United States of America,Left,R564292257260gxrw,1.0,,,,,,,,,,,
16,instruction,causal-graph1,108942,male,61,english,United States of America,Left,R564292257260gxrw,,,,,,,,,,,,
16,instruction,survey-multi-choice,115125,male,61,english,United States of America,Left,R564292257260gxrw,,,"{""Q0"":"" To find out if the Gauge of Critical Moment (G) is activated or not"",""Q1"":"" A detector becomes active if it absorbs a radioactive particle"",""Q2"":"" G becomes active if it absorbs a radioactive particle""}",,,,,,,,,
16,instruction,causal-graph1,117789,male,61,english,United States of America,Left,R564292257260gxrw,,,,,,,,,,,,
16,instruction,causal-graph1,120982,male,61,english,United States of America,Left,R564292257260gxrw,,,,,,,,,,,,
16,instruction,causal-graph1,123261,male,61,english,United States of America,Left,R564292257260gxrw,,,,,,,,,,,,
16,instruction,causal-graph1,129302,male,61,english,United States of America,Left,R564292257260gxrw,1.0,,,,,,,,,,,
16,instruction,causal-graph1,131429,male,61,english,United States of America,Left,R564292257260gxrw,,,,,,,,,,,,
16,instruction,causal-graph1,139238,male,61,english,United States of America,Left,R564292257260gxrw,1.0,,,,,,,,,,,
16,instruction,causal-graph1,141869,male,61,english,United States of America,Left,R564292257260gxrw,,,,,,,,,,,,
16,instruction,survey-multi-choice,149406,male,61,english,United States of America,Left,R564292257260gxrw,,,"{""Q0"":"" To find out if the Gauge of Critical Moment (G) is activated or not"",""Q1"":"" A detector becomes active if it receives input from an active detector"",""Q2"":"" G becomes active if it absorbs a radioactive particle""}",,,,,,,,,
16,instruction,causal-graph1,151781,male,61,english,United States of America,Left,R564292257260gxrw,,,,,,,,,,,,
16,instruction,causal-graph1,153797,male,61,english,United States of America,Left,R564292257260gxrw,,,,,,,,,,,,
16,instruction,causal-graph1,155646,male,61,english,United States of America,Left,R564292257260gxrw,,,,,,,,,,,,
16,instruction,causal-graph1,161726,male,61,english,United States of America,Left,R564292257260gxrw,1.0,,,,,,,,,,,
16,instruction,causal-graph1,163749,male,61,english,United States of America,Left,R564292257260gxrw,,,,,,,,,,,,
16,instruction,causal-graph1,171766,male,61,english,United States of America,Left,R564292257260gxrw,1.0,,,,,,,,,,,
16,instruction,causal-graph1,174110,male,61,english,United States of America,Left,R564292257260gxrw,,,,,,,,,,,,
16,instruction,survey-multi-choice,182055,male,61,english,United States of America,Left,R564292257260gxrw,,,"{""Q0"":"" To find out if the Gauge of Critical Moment (G) is activated or not"",""Q1"":"" A detector becomes active if it receives input from an active detector"",""Q2"":"" G becomes active if it absorbs a radioactive particle""}",,,,,,,,,
16,instruction,causal-graph1,184087,male,61,english,United States of America,Left,R564292257260gxrw,,,,,,,,,,,,
16,instruction,causal-graph1,185958,male,61,english,United States of America,Left,R564292257260gxrw,,,,,,,,,,,,
16,instruction,causal-graph1,187918,male,61,english,United States of America,Left,R564292257260gxrw,,,,,,,,,,,,
16,instruction,causal-graph1,193918,male,61,english,United States of America,Left,R564292257260gxrw,1.0,,,,,,,,,,,
16,instruction,causal-graph1,197207,male,61,english,United States of America,Left,R564292257260gxrw,,,,,,,,,,,,
16,instruction,causal-graph1,204342,male,61,english,United States of America,Left,R564292257260gxrw,1.0,,,,,,,,,,,
16,instruction,causal-graph1,206431,male,61,english,United States of America,Left,R564292257260gxrw,,,,,,,,,,,,
16,instruction,survey-multi-choice,215559,male,61,english,United States of America,Left,R564292257260gxrw,,,"{""Q0"":"" To decide what caused the activation of G"",""Q1"":"" A detector becomes active if it receives input from an active detector"",""Q2"":"" G becomes active if all of its inputs are active""}",,,,,,,,,
16,instruction,causal-graph1,218903,male,61,english,United States of America,Left,R564292257260gxrw,,,,,,,,,,,,
16,instruction,causal-graph1,221271,male,61,english,United States of America,Left,R564292257260gxrw,,,,,,,,,,,,
16,instruction,causal-graph1,223135,male,61,english,United States of America,Left,R564292257260gxrw,,,,,,,,,,,,
16,instruction,causal-graph1,228911,male,61,english,United States of America,Left,R564292257260gxrw,1.0,,,,,,,,,,,
16,instruction,causal-graph1,230798,male,61,english,United States of America,Left,R564292257260gxrw,,,,,,,,,,,,
16,instruction,causal-graph1,237839,male,61,english,United States of America,Left,R564292257260gxrw,1.0,,,,,,,,,,,
16,instruction,causal-graph1,245504,male,61,english,United States of America,Left,R564292257260gxrw,,,,,,,,,,,,
16,instruction,survey-multi-choice,252759,male,61,english,United States of America,Left,R564292257260gxrw,,,"{""Q0"":"" To decide what caused the activation of each detector"",""Q1"":"" A detector becomes active if it receives input from an active detector"",""Q2"":"" G becomes active if it absorbs a radioactive particle""}",,,,,,,,,
16,instruction,causal-graph1,254934,male,61,english,United States of America,Left,R564292257260gxrw,,,,,,,,,,,,
16,instruction,causal-graph1,256806,male,61,english,United States of America,Left,R564292257260gxrw,,,,,,,,,,,,
16,instruction,causal-graph1,258744,male,61,english,United States of America,Left,R564292257260gxrw,,,,,,,,,,,,
16,instruction,causal-graph1,264816,male,61,english,United States of America,Left,R564292257260gxrw,1.0,,,,,,,,,,,
16,instruction,causal-graph1,267056,male,61,english,United States of America,Left,R564292257260gxrw,,,,,,,,,,,,
16,instruction,causal-graph1,274279,male,61,english,United States of America,Left,R564292257260gxrw,1.0,,,,,,,,,,,
16,instruction,causal-graph1,276199,male,61,english,United States of America,Left,R564292257260gxrw,,,,,,,,,,,,
16,instruction,survey-multi-choice,282871,male,61,english,United States of America,Left,R564292257260gxrw,,,"{""Q0"":"" To find out if the Gauge of Critical Moment (G) is activated or not"",""Q1"":"" A detector becomes active if it absorbs a radioactive particle"",""Q2"":"" G becomes active if it absorbs a radioactive particle""}",,,,,,,,,
16,instruction,causal-graph1,285456,male,61,english,United States of America,Left,R564292257260gxrw,,,,,,,,,,,,
16,instruction,causal-graph1,288584,male,61,english,United States of America,Left,R564292257260gxrw,,,,,,,,,,,,
16,instruction,causal-graph1,290439,male,61,english,United States of America,Left,R564292257260gxrw,,,,,,,,,,,,
16,instruction,causal-graph1,304528,male,61,english,United States of America,Left,R564292257260gxrw,3.0,,,,,,,,,,,
16,instruction,causal-graph1,306664,male,61,english,United States of America,Left,R564292257260gxrw,,,,,,,,,,,,
16,instruction,causal-graph1,313656,male,61,english,United States of America,Left,R564292257260gxrw,1.0,,,,,,,,,,,
16,instruction,causal-graph1,315888,male,61,english,United States of America,Left,R564292257260gxrw,,,,,,,,,,,,
16,instruction,survey-multi-choice,322681,male,61,english,United States of America,Left,R564292257260gxrw,,,"{""Q0"":"" To decide what caused the activation of each detector"",""Q1"":"" A detector becomes active if it absorbs a radioactive particle"",""Q2"":"" G becomes active if all of its inputs are active""}",,,,,,,,,
16,instruction,causal-graph1,324928,male,61,english,United States of America,Left,R564292257260gxrw,,,,,,,,,,,,
16,instruction,causal-graph1,326841,male,61,english,United States of America,Left,R564292257260gxrw,,,,,,,,,,,,
16,instruction,causal-graph1,328633,male,61,english,United States of America,Left,R564292257260gxrw,,,,,,,,,,,,
16,instruction,causal-graph1,338552,male,61,english,United States of America,Left,R564292257260gxrw,1.0,,,,,,,,,,,
16,instruction,causal-graph1,341080,male,61,english,United States of America,Left,R564292257260gxrw,,,,,,,,,,,,
16,instruction,causal-graph1,349192,male,61,english,United States of America,Left,R564292257260gxrw,1.0,,,,,,,,,,,
16,instruction,causal-graph1,351280,male,61,english,United States of America,Left,R564292257260gxrw,,,,,,,,,,,,
16,instruction,survey-multi-choice,357720,male,61,english,United States of America,Left,R564292257260gxrw,,,"{""Q0"":"" To find out if the Gauge of Critical Moment (G) is activated or not"",""Q1"":"" A detector becomes active if it absorbs a radioactive particle"",""Q2"":"" G becomes active if all of its inputs are active""}",,,,,,,,,
16,instruction,causal-graph1,410080,male,61,english,United States of America,Left,R564292257260gxrw,,,,,,,,,,,,
16,instruction,causal-graph1,411904,male,61,english,United States of America,Left,R564292257260gxrw,,,,,,,,,,,,
16,instruction,causal-graph1,413720,male,61,english,United States of America,Left,R564292257260gxrw,,,,,,,,,,,,
16,instruction,causal-graph1,420761,male,61,english,United States of America,Left,R564292257260gxrw,1.0,,,,,,,,,,,
16,instruction,causal-graph1,422608,male,61,english,United States of America,Left,R564292257260gxrw,,,,,,,,,,,,
16,instruction,causal-graph1,430032,male,61,english,United States of America,Left,R564292257260gxrw,1.0,,,,,,,,,,,
16,instruction,causal-graph1,432417,male,61,english,United States of America,Left,R564292257260gxrw,,,,,,,,,,,,
16,instruction,survey-multi-choice,445793,male,61,english,United States of America,Left,R564292257260gxrw,,,"{""Q0"":"" To find out if the Gauge of Critical Moment (G) is activated or not"",""Q1"":"" A detector becomes active if it receives input from an active detector"",""Q2"":"" G becomes active if it absorbs a radioactive particle""}",,,,,,,,,
16,instruction,causal-graph1,448200,male,61,english,United States of America,Left,R564292257260gxrw,,,,,,,,,,,,
16,instruction,causal-graph1,451537,male,61,english,United States of America,Left,R564292257260gxrw,,,,,,,,,,,,
16,instruction,causal-graph1,453729,male,61,english,United States of America,Left,R564292257260gxrw,,,,,,,,,,,,
16,instruction,causal-graph1,523465,male,61,english,United States of America,Left,R564292257260gxrw,1.0,,,,,,,,,,,
16,instruction,causal-graph1,525970,male,61,english,United States of America,Left,R564292257260gxrw,,,,,,,,,,,,
16,instruction,causal-graph1,533210,male,61,english,United States of America,Left,R564292257260gxrw,1.0,,,,,,,,,,,
16,instruction,causal-graph1,535058,male,61,english,United States of America,Left,R564292257260gxrw,,,,,,,,,,,,
16,instruction,survey-multi-choice,540466,male,61,english,United States of America,Left,R564292257260gxrw,,,"{""Q0"":"" To decide what caused the activation of G"",""Q1"":"" A detector becomes active if it absorbs a radioactive particle"",""Q2"":"" G becomes active if all of its inputs are active""}",,,,,,,,,
16,instruction,causal-graph1,542714,male,61,english,United States of America,Left,R564292257260gxrw,,,,,,,,,,,,
16,instruction,causal-graph1,544929,male,61,english,United States of America,Left,R564292257260gxrw,,,,,,,,,,,,
16,instruction,causal-graph1,547593,male,61,english,United States of America,Left,R564292257260gxrw,,,,,,,,,,,,
16,instruction,causal-graph1,554834,male,61,english,United States of America,Left,R564292257260gxrw,1.0,,,,,,,,,,,
16,instruction,causal-graph1,556978,male,61,english,United States of America,Left,R564292257260gxrw,,,,,,,,,,,,
16,instruction,causal-graph1,564113,male,61,english,United States of America,Left,R564292257260gxrw,1.0,,,,,,,,,,,
16,instruction,causal-graph1,566169,male,61,english,United States of America,Left,R564292257260gxrw,,,,,,,,,,,,
16,instruction,survey-multi-choice,572050,male,61,english,United States of America,Left,R564292257260gxrw,,,"{""Q0"":"" To find out if the Gauge of Critical Moment (G) is activated or not"",""Q1"":"" A detector becomes active if it receives input from an active detector"",""Q2"":"" G becomes active if it absorbs a radioactive particle""}",,,,,,,,,
16,instruction,causal-graph1,575562,male,61,english,United States of America,Left,R564292257260gxrw,,,,,,,,,,,,
16,instruction,causal-graph1,577681,male,61,english,United States of America,Left,R564292257260gxrw,,,,,,,,,,,,
16,instruction,causal-graph1,579714,male,61,english,United States of America,Left,R564292257260gxrw,,,,,,,,,,,,
16,instruction,causal-graph1,585610,male,61,english,United States of America,Left,R564292257260gxrw,1.0,,,,,,,,,,,
16,instruction,causal-graph1,587586,male,61,english,United States of America,Left,R564292257260gxrw,,,,,,,,,,,,
16,instruction,causal-graph1,594618,male,61,english,United States of America,Left,R564292257260gxrw,1.0,,,,,,,,,,,
16,instruction,causal-graph1,596625,male,61,english,United States of America,Left,R564292257260gxrw,,,,,,,,,,,,
16,instruction,survey-multi-choice,602978,male,61,english,United States of America,Left,R564292257260gxrw,,,"{""Q0"":"" To decide what caused the activation of each detector"",""Q1"":"" A detector becomes active if it absorbs a radioactive particle"",""Q2"":"" G becomes active if all of its inputs are active""}",,,,,,,,,
16,instruction,causal-graph1,606066,male,61,english,United States of America,Left,R564292257260gxrw,,,,,,,,,,,,
16,instruction,causal-graph1,608467,male,61,english,United States of America,Left,R564292257260gxrw,,,,,,,,,,,,
16,instruction,causal-graph1,610843,male,61,english,United States of America,Left,R564292257260gxrw,,,,,,,,,,,,
16,instruction,causal-graph1,617010,male,61,english,United States of America,Left,R564292257260gxrw,1.0,,,,,,,,,,,
16,instruction,causal-graph1,618867,male,61,english,United States of America,Left,R564292257260gxrw,,,,,,,,,,,,
16,instruction,causal-graph1,625930,male,61,english,United States of America,Left,R564292257260gxrw,1.0,,,,,,,,,,,
16,instruction,causal-graph1,628114,male,61,english,United States of America,Left,R564292257260gxrw,,,,,,,,,,,,
16,instruction,survey-multi-choice,637930,male,61,english,United States of America,Left,R564292257260gxrw,,,"{""Q0"":"" To decide what caused the activation of each detector"",""Q1"":"" A detector becomes active if it absorbs a radioactive particle or receives input from an active detector"",""Q2"":"" G becomes active if at least one of its inputs is active""}",,,,,,,,,
16,instruction,causal-graph1,640066,male,61,english,United States of America,Left,R564292257260gxrw,,,,,,,,,,,,
16,instruction,causal-graph1,641810,male,61,english,United States of America,Left,R564292257260gxrw,,,,,,,,,,,,
16,instruction,causal-graph1,643675,male,61,english,United States of America,Left,R564292257260gxrw,,,,,,,,,,,,
16,instruction,causal-graph1,649603,male,61,english,United States of America,Left,R564292257260gxrw,1.0,,,,,,,,,,,
16,instruction,causal-graph1,651412,male,61,english,United States of America,Left,R564292257260gxrw,,,,,,,,,,,,
16,instruction,causal-graph1,677044,male,61,english,United States of America,Left,R564292257260gxrw,1.0,,,,,,,,,,,
16,instruction,causal-graph1,679083,male,61,english,United States of America,Left,R564292257260gxrw,,,,,,,,,,,,
16,instruction,survey-multi-choice,685660,male,61,english,United States of America,Left,R564292257260gxrw,,,"{""Q0"":"" To decide what caused the activation of G"",""Q1"":"" A detector becomes active if it receives input from an active detector"",""Q2"":"" G becomes active if all of its inputs are active""}",,,,,,,,,
16,instruction,causal-graph1,687804,male,61,english,United States of America,Left,R564292257260gxrw,,,,,,,,,,,,
16,instruction,causal-graph1,690291,male,61,english,United States of America,Left,R564292257260gxrw,,,,,,,,,,,,
16,instruction,causal-graph1,692075,male,61,english,United States of America,Left,R564292257260gxrw,,,,,,,,,,,,
16,instruction,causal-graph1,697891,male,61,english,United States of America,Left,R564292257260gxrw,1.0,,,,,,,,,,,
16,instruction,causal-graph1,699851,male,61,english,United States of America,Left,R564292257260gxrw,,,,,,,,,,,,
16,instruction,causal-graph1,706795,male,61,english,United States of America,Left,R564292257260gxrw,1.0,,,,,,,,,,,
16,instruction,causal-graph1,708795,male,61,english,United States of America,Left,R564292257260gxrw,,,,,,,,,,,,
16,instruction,survey-multi-choice,714908,male,61,english,United States of America,Left,R564292257260gxrw,,,"{""Q0"":"" To find out if the Gauge of Critical Moment (G) is activated or not"",""Q1"":"" A detector becomes active if it receives input from an active detector"",""Q2"":"" G becomes active if it absorbs a radioactive particle""}",,,,,,,,,
16,instruction,causal-graph1,717404,male,61,english,United States of America,Left,R564292257260gxrw,,,,,,,,,,,,
16,instruction,causal-graph1,719435,male,61,english,United States of America,Left,R564292257260gxrw,,,,,,,,,,,,
16,instruction,causal-graph1,721387,male,61,english,United States of America,Left,R564292257260gxrw,,,,,,,,,,,,
16,instruction,causal-graph1,727404,male,61,english,United States of America,Left,R564292257260gxrw,1.0,,,,,,,,,,,
16,instruction,causal-graph1,729899,male,61,english,United States of America,Left,R564292257260gxrw,,,,,,,,,,,,
16,instruction,causal-graph1,736867,male,61,english,United States of America,Left,R564292257260gxrw,1.0,,,,,,,,,,,
16,instruction,causal-graph1,738812,male,61,english,United States of America,Left,R564292257260gxrw,,,,,,,,,,,,
16,instruction,survey-multi-choice,747452,male,61,english,United States of America,Left,R564292257260gxrw,,,"{""Q0"":"" To decide what caused the activation of each detector"",""Q1"":"" A detector becomes active if it absorbs a radioactive particle"",""Q2"":"" G becomes active if all of its inputs are active""}",,,,,,,,,
16,instruction,causal-graph1,750028,male,61,english,United States of America,Left,R564292257260gxrw,,,,,,,,,,,,
16,instruction,causal-graph1,752347,male,61,english,United States of America,Left,R564292257260gxrw,,,,,,,,,,,,
16,instruction,causal-graph1,754252,male,61,english,United States of America,Left,R564292257260gxrw,,,,,,,,,,,,
16,instruction,causal-graph1,760004,male,61,english,United States of America,Left,R564292257260gxrw,1.0,,,,,,,,,,,
16,instruction,causal-graph1,762100,male,61,english,United States of America,Left,R564292257260gxrw,,,,,,,,,,,,
16,instruction,causal-graph1,848084,male,61,english,United States of America,Left,R564292257260gxrw,1.0,,,,,,,,,,,
16,instruction,causal-graph1,850412,male,61,english,United States of America,Left,R564292257260gxrw,,,,,,,,,,,,
16,instruction,survey-multi-choice,856596,male,61,english,United States of America,Left,R564292257260gxrw,,,"{""Q0"":"" To decide what caused the activation of G"",""Q1"":"" A detector becomes active if it absorbs a radioactive particle or receives input from an active detector"",""Q2"":"" G becomes active if it absorbs a radioactive particle""}",,,,,,,,,
16,instruction,causal-graph1,859180,male,61,english,United States of America,Left,R564292257260gxrw,,,,,,,,,,,,
16,instruction,causal-graph1,861484,male,61,english,United States of America,Left,R564292257260gxrw,,,,,,,,,,,,
16,instruction,causal-graph1,862948,male,61,english,United States of America,Left,R564292257260gxrw,,,,,,,,,,,,
16,instruction,causal-graph1,868852,male,61,english,United States of America,Left,R564292257260gxrw,1.0,,,,,,,,,,,
16,instruction,causal-graph1,871036,male,61,english,United States of America,Left,R564292257260gxrw,,,,,,,,,,,,
16,instruction,causal-graph1,879317,male,61,english,United States of America,Left,R564292257260gxrw,1.0,,,,,,,,,,,
16,instruction,causal-graph1,882172,male,61,english,United States of America,Left,R564292257260gxrw,,,,,,,,,,,,
16,instruction,survey-multi-choice,901469,male,61,english,United States of America,Left,R564292257260gxrw,,,"{""Q0"":"" To decide what caused the activation of G"",""Q1"":"" A detector becomes active if it absorbs a radioactive particle or receives input from an active detector"",""Q2"":"" G becomes active if all of its inputs are active""}",,,,,,,,,
16,instruction,causal-graph1,915837,male,61,english,United States of America,Left,R564292257260gxrw,,,,,,,,,,,,
16,chainS_L,causal-graph1,1004134,male,61,english,United States of America,Left,R564292257260gxrw,2.0,64544.35499990358,,ChainS,,,,,,,,nodeB5
16,UAAS_LB,causal-graph1,1019014,male,61,english,United States of America,Left,R564292257260gxrw,1.0,12097.264999989422,,AND_Gate,Unrolled,Bottom,Squares,Event,,A,A,nodeB6
16,UBBS_LT,causal-graph1,1034503,male,61,english,United States of America,Left,R564292257260gxrw,1.0,11832.450000103565,,AND_Gate,Unrolled,Top,Squares,Event,,B,B,nodeA23
16,UABS_LB,causal-graph1,1049991,male,61,english,United States of America,Left,R564292257260gxrw,1.0,12240.035000024363,,AND_Gate,Unrolled,Bottom,Squares,Event,,A,B,nodeB6
16,UBAS_LB,causal-graph1,1063423,male,61,english,United States of America,Left,R564292257260gxrw,1.0,10456.495000049472,,AND_Gate,Unrolled,Bottom,Squares,Event,,B,A,nodeA15
16,UAS_LT,causal-graph1,1125424,male,61,english,United States of America,Left,R564292257260gxrw,1.0,9753.700000001118,,AND_Gate,Unrolled,Top,Squares,State,A,,B,nodeB3
16,UBS_LT,causal-graph1,1138952,male,61,english,United States of America,Left,R564292257260gxrw,1.0,10526.514999801291,,AND_Gate,Unrolled,Top,Squares,State,B,,A,nodeA2
16,instruction,causal-graph1,1142295,male,61,english,United States of America,Left,R564292257260gxrw,,,,,,,,,,,,
16,comment,survey-text,1150303,male,61,english,United States of America,Left,R564292257260gxrw,,7994.885000167415,"{""Q0"":""likely""}",,,,,,,,,
17,instruction,causal-graph1,5141,male,32,English,United States of America,Left,R563277577520gxrw,,,,,,,,,,,,
17,instruction,causal-graph1,41973,male,32,English,United States of America,Left,R563277577520gxrw,,,,,,,,,,,,
17,instruction,causal-graph1,54039,male,32,English,United States of America,Left,R563277577520gxrw,1.0,,,,,,,,,,,
17,instruction,causal-graph1,59973,male,32,English,United States of America,Left,R563277577520gxrw,,,,,,,,,,,,
17,instruction,causal-graph1,76863,male,32,English,United States of America,Left,R563277577520gxrw,1.0,,,,,,,,,,,
17,instruction,causal-graph1,84867,male,32,English,United States of America,Left,R563277577520gxrw,,,,,,,,,,,,
17,instruction,survey-multi-choice,112915,male,32,English,United States of America,Left,R563277577520gxrw,,,"{""Q0"":"" To decide what caused the activation of G"",""Q1"":"" A detector becomes active if it absorbs a radioactive particle or receives input from an active detector"",""Q2"":"" G becomes active if all of its inputs are active""}",,,,,,,,,
17,instruction,causal-graph1,114593,male,32,English,United States of America,Left,R563277577520gxrw,,,,,,,,,,,,
17,chainS_L,causal-graph1,133833,male,32,English,United States of America,Left,R563277577520gxrw,1.0,17657.639999873936,,ChainS,,,,,,,,nodeB19
17,UBAS_LB,causal-graph1,149187,male,32,English,United States of America,Left,R563277577520gxrw,1.0,12219.779999926686,,AND_Gate,Unrolled,Bottom,Squares,Event,,B,A,nodeA41
17,UABS_LB,causal-graph1,180843,male,32,English,United States of America,Left,R563277577520gxrw,1.0,17746.240000007674,,AND_Gate,Unrolled,Bottom,Squares,Event,,A,B,nodeB19
17,UAS_LT,causal-graph1,196983,male,32,English,United States of America,Left,R563277577520gxrw,1.0,12589.275000151247,,AND_Gate,Unrolled,Top,Squares,State,A,,B,nodeB19
17,UBBS_LB,causal-graph1,232578,male,32,English,United States of America,Left,R563277577520gxrw,2.0,9473.625000100583,,AND_Gate,Unrolled,Bottom,Squares,Event,,B,B,nodeB19
17,UAAS_LT,causal-graph1,246634,male,32,English,United States of America,Left,R563277577520gxrw,1.0,13386.260000057517,,AND_Gate,Unrolled,Top,Squares,Event,,A,A,nodeA41
17,UBS_LB,causal-graph1,262948,male,32,English,United States of America,Left,R563277577520gxrw,1.0,14943.419999908654,,AND_Gate,Unrolled,Bottom,Squares,State,B,,A,nodeA41
17,instruction,causal-graph1,264286,male,32,English,United States of America,Left,R563277577520gxrw,,,,,,,,,,,,
17,comment,survey-text,281872,male,32,English,United States of America,Left,R563277577520gxrw,,17579.5400000643,"{""Q0"":""""}",,,,,,,,,
18,instruction,causal-graph1,11997,male,33,English,United States of America,Right,R566212997560gxrw,,,,,,,,,,,,
18,instruction,causal-graph1,141035,male,33,English,United States of America,Right,R566212997560gxrw,,,,,,,,,,,,
18,instruction,causal-graph1,155939,male,33,English,United States of America,Right,R566212997560gxrw,1.0,,,,,,,,,,,
18,instruction,causal-graph1,162939,male,33,English,United States of America,Right,R566212997560gxrw,,,,,,,,,,,,
18,instruction,causal-graph1,181651,male,33,English,United States of America,Right,R566212997560gxrw,1.0,,,,,,,,,,,
18,instruction,causal-graph1,189243,male,33,English,United States of America,Right,R566212997560gxrw,,,,,,,,,,,,
18,instruction,survey-multi-choice,203195,male,33,English,United States of America,Right,R566212997560gxrw,,,"{""Q0"":"" To decide what caused the activation of G"",""Q1"":"" A detector becomes active if it absorbs a radioactive particle"",""Q2"":"" G becomes active if all of its inputs are active""}",,,,,,,,,
18,instruction,causal-graph1,205291,male,33,English,United States of America,Right,R566212997560gxrw,,,,,,,,,,,,
18,instruction,causal-graph1,206435,male,33,English,United States of America,Right,R566212997560gxrw,,,,,,,,,,,,
18,instruction,causal-graph1,207043,male,33,English,United States of America,Right,R566212997560gxrw,,,,,,,,,,,,
18,instruction,causal-graph1,215747,male,33,English,United States of America,Right,R566212997560gxrw,2.0,,,,,,,,,,,
18,instruction,causal-graph1,234339,male,33,English,United States of America,Right,R566212997560gxrw,,,,,,,,,,,,
18,instruction,causal-graph1,240091,male,33,English,United States of America,Right,R566212997560gxrw,1.0,,,,,,,,,,,
18,instruction,causal-graph1,241931,male,33,English,United States of America,Right,R566212997560gxrw,,,,,,,,,,,,
18,instruction,survey-multi-choice,261475,male,33,English,United States of America,Right,R566212997560gxrw,,,"{""Q0"":"" To decide what caused the activation of G"",""Q1"":"" A detector becomes active if it absorbs a radioactive particle or receives input from an active detector"",""Q2"":"" G becomes active if all of its inputs are active""}",,,,,,,,,
18,instruction,causal-graph1,262763,male,33,English,United States of America,Right,R566212997560gxrw,,,,,,,,,,,,
18,UABS_RB,causal-graph1,280115,male,33,English,United States of America,Right,R566212997560gxrw,1.0,16255.140000001118,,AND_Gate,Unrolled,Bottom,Squares,Event,,A,B,nodeB19
18,UBS_RT,causal-graph1,293691,male,33,English,United States of America,Right,R566212997560gxrw,1.0,11670.630000000527,,AND_Gate,Unrolled,Top,Squares,State,B,,A,nodeA41
18,UAAS_RB,causal-graph1,306003,male,33,English,United States of America,Right,R566212997560gxrw,1.0,10959.565000004659,,AND_Gate,Unrolled,Bottom,Squares,Event,,A,A,nodeA41
18,UBAS_RT,causal-graph1,320899,male,33,English,United States of America,Right,R566212997560gxrw,1.0,13725.859999998647,,AND_Gate,Unrolled,Top,Squares,Event,,B,A,nodeA41
18,chainS_R,causal-graph1,359291,male,33,English,United States of America,Right,R566212997560gxrw,1.0,35942.409999996016,,ChainS,,,,,,,,nodeB19
18,UAS_RT,causal-graph1,373291,male,33,English,United States of America,Right,R566212997560gxrw,1.0,11318.14999999915,,AND_Gate,Unrolled,Top,Squares,State,A,,B,nodeB19
18,UBBS_RB,causal-graph1,384906,male,33,English,United States of America,Right,R566212997560gxrw,1.0,10430.935000003956,,AND_Gate,Unrolled,Bottom,Squares,Event,,B,B,nodeB19
18,instruction,causal-graph1,386530,male,33,English,United States of America,Right,R566212997560gxrw,,,,,,,,,,,,
18,comment,survey-text,388306,male,33,English,United States of America,Right,R566212997560gxrw,,1770.620000002964,"{""Q0"":""""}",,,,,,,,,
19,instruction,causal-graph1,6594,male,24,English,United States of America,Right,R561039097580gxrw,,,,,,,,,,,,
19,instruction,causal-graph1,12661,male,24,English,United States of America,Right,R561039097580gxrw,,,,,,,,,,,,
