subject_id,stimulus,trial_type,time_elapsed,gender,age,language,country,sampling,turkcode,nb_of_run,rt,responses,stim_type,rolled_OR_unrolled,A_branch_loc,A_detectors,state_OR_event,state_branch,root_1st,imdt_2nd,node_selected
1,instruction,causal-graph1,94322,male,63,English,United States of America,Right,R568219297770gxrw,,,,,,,,,,,,
1,instruction,causal-graph1,103375,male,63,English,United States of America,Right,R568219297770gxrw,,,,,,,,,,,,
1,instruction,causal-graph1,126004,male,63,English,United States of America,Right,R568219297770gxrw,1.0,,,,,,,,,,,
1,instruction,causal-graph1,148777,male,63,English,United States of America,Right,R568219297770gxrw,,,,,,,,,,,,
1,instruction,causal-graph1,163555,male,63,English,United States of America,Right,R568219297770gxrw,1.0,,,,,,,,,,,
1,instruction,causal-graph1,176153,male,63,English,United States of America,Right,R568219297770gxrw,,,,,,,,,,,,
1,instruction,survey-multi-choice,261990,male,63,English,United States of America,Right,R568219297770gxrw,,,"{""Q0"":"" To decide what caused the activation of G"",""Q1"":"" A detector becomes active if it absorbs a radioactive particle"",""Q2"":"" G becomes active if all of its inputs are active""}",,,,,,,,,
1,instruction,causal-graph1,267337,male,63,English,United States of America,Right,R568219297770gxrw,,,,,,,,,,,,
1,instruction,causal-graph1,269945,male,63,English,United States of America,Right,R568219297770gxrw,,,,,,,,,,,,
1,instruction,causal-graph1,274114,male,63,English,United States of America,Right,R568219297770gxrw,,,,,,,,,,,,
1,instruction,causal-graph1,287948,male,63,English,United States of America,Right,R568219297770gxrw,1.0,,,,,,,,,,,
1,instruction,causal-graph1,295075,male,63,English,United States of America,Right,R568219297770gxrw,,,,,,,,,,,,
1,instruction,causal-graph1,305930,male,63,English,United States of America,Right,R568219297770gxrw,1.0,,,,,,,,,,,
1,instruction,causal-graph1,320914,male,63,English,United States of America,Right,R568219297770gxrw,,,,,,,,,,,,
1,instruction,survey-multi-choice,415642,male,63,English,United States of America,Right,R568219297770gxrw,,,"{""Q0"":"" To decide what caused the activation of G"",""Q1"":"" A detector becomes active if it absorbs a radioactive particle or receives input from an active detector"",""Q2"":"" G becomes active if all of its inputs are active""}",,,,,,,,,
1,instruction,causal-graph1,420269,male,63,English,United States of America,Right,R568219297770gxrw,,,,,,,,,,,,
1,UABS_RT,causal-graph1,465546,male,63,English,United States of America,Right,R568219297770gxrw,1.0,40031.0,,AND_Gate,Unrolled,Top,Squares,Event,,A,B,nodeB19
1,chainS_R,causal-graph1,480702,male,63,English,United States of America,Right,R568219297770gxrw,1.0,11284.0,,ChainS,,,,,,,,nodeB19
1,UAS_RT,causal-graph1,502202,male,63,English,United States of America,Right,R568219297770gxrw,1.0,17030.0,,AND_Gate,Unrolled,Top,Squares,State,A,,B,nodeB19
1,UBBS_RB,causal-graph1,517356,male,63,English,United States of America,Right,R568219297770gxrw,1.0,12418.0,,AND_Gate,Unrolled,Bottom,Squares,Event,,B,B,nodeB19
1,UBAS_RT,causal-graph1,534853,male,63,English,United States of America,Right,R568219297770gxrw,1.0,14022.0,,AND_Gate,Unrolled,Top,Squares,Event,,B,A,nodeA41
1,UBS_RT,causal-graph1,557130,male,63,English,United States of America,Right,R568219297770gxrw,1.0,16359.0,,AND_Gate,Unrolled,Top,Squares,State,B,,A,nodeA41
1,UAAS_RT,causal-graph1,584898,male,63,English,United States of America,Right,R568219297770gxrw,1.0,21801.0,,AND_Gate,Unrolled,Top,Squares,Event,,A,A,nodeA41
1,instruction,causal-graph1,589281,male,63,English,United States of America,Right,R568219297770gxrw,,,,,,,,,,,,
1,comment,survey-text,591065,male,63,English,United States of America,Right,R568219297770gxrw,,1749.0,"{""Q0"":""""}",,,,,,,,,
2,instruction,causal-graph1,25008,female,35,Turkish,United States of America,Left,R568393397970gxrw,,,,,,,,,,,,
2,instruction,causal-graph1,40025,female,35,Turkish,United States of America,Left,R568393397970gxrw,,,,,,,,,,,,
2,instruction,causal-graph1,76214,female,35,Turkish,United States of America,Left,R568393397970gxrw,1.0,,,,,,,,,,,
2,instruction,causal-graph1,100212,female,35,Turkish,United States of America,Left,R568393397970gxrw,,,,,,,,,,,,
2,instruction,causal-graph1,153979,female,35,Turkish,United States of America,Left,R568393397970gxrw,1.0,,,,,,,,,,,
2,instruction,causal-graph1,168998,female,35,Turkish,United States of America,Left,R568393397970gxrw,,,,,,,,,,,,
2,instruction,survey-multi-choice,294778,female,35,Turkish,United States of America,Left,R568393397970gxrw,,,"{""Q0"":"" To decide what caused the activation of G"",""Q1"":"" A detector becomes active if it absorbs a radioactive particle or receives input from an active detector"",""Q2"":"" G becomes active if all of its inputs are active""}",,,,,,,,,
2,instruction,causal-graph1,306920,female,35,Turkish,United States of America,Left,R568393397970gxrw,,,,,,,,,,,,
2,UAS_LT,causal-graph1,386904,female,35,Turkish,United States of America,Left,R568393397970gxrw,2.0,64342.0,,AND_Gate,Unrolled,Top,Squares,State,A,,B,nodeB19
2,chainS_L,causal-graph1,429102,female,35,Turkish,United States of America,Left,R568393397970gxrw,1.0,40194.0,,ChainS,,,,,,,,nodeB9
2,UAAS_LB,causal-graph1,459063,female,35,Turkish,United States of America,Left,R568393397970gxrw,1.0,27948.0,,AND_Gate,Unrolled,Bottom,Squares,Event,,A,A,nodeB20
2,UBBS_LB,causal-graph1,494370,female,35,Turkish,United States of America,Left,R568393397970gxrw,2.0,18863.0,,AND_Gate,Unrolled,Bottom,Squares,Event,,B,B,nodeB2
2,UBS_LT,causal-graph1,513288,female,35,Turkish,United States of America,Left,R568393397970gxrw,1.0,15954.0,,AND_Gate,Unrolled,Top,Squares,State,B,,A,nodeA20
2,UBAS_LB,causal-graph1,532059,female,35,Turkish,United States of America,Left,R568393397970gxrw,1.0,17294.0,,AND_Gate,Unrolled,Bottom,Squares,Event,,B,A,nodeA25
2,UABS_LT,causal-graph1,555482,female,35,Turkish,United States of America,Left,R568393397970gxrw,1.0,21221.0,,AND_Gate,Unrolled,Top,Squares,Event,,A,B,nodeB7
2,instruction,causal-graph1,558051,female,35,Turkish,United States of America,Left,R568393397970gxrw,,,,,,,,,,,,
2,comment,survey-text,561375,female,35,Turkish,United States of America,Left,R568393397970gxrw,,3315.0,"{""Q0"":""""}",,,,,,,,,
3,instruction,causal-graph1,11045,female,31,English,United States of America,Left,R569505437620gxrw,,,,,,,,,,,,
3,instruction,causal-graph1,17027,female,31,English,United States of America,Left,R569505437620gxrw,,,,,,,,,,,,
3,instruction,causal-graph1,39513,female,31,English,United States of America,Left,R569505437620gxrw,2.0,,,,,,,,,,,
3,instruction,causal-graph1,53108,female,31,English,United States of America,Left,R569505437620gxrw,,,,,,,,,,,,
3,instruction,causal-graph1,75650,female,31,English,United States of America,Left,R569505437620gxrw,1.0,,,,,,,,,,,
3,instruction,causal-graph1,82891,female,31,English,United States of America,Left,R569505437620gxrw,,,,,,,,,,,,
3,instruction,survey-multi-choice,121943,female,31,English,United States of America,Left,R569505437620gxrw,,,"{""Q0"":"" To decide what caused the activation of G"",""Q1"":"" A detector becomes active if it absorbs a radioactive particle"",""Q2"":"" G becomes active if all of its inputs are active""}",,,,,,,,,
3,instruction,causal-graph1,125682,female,31,English,United States of America,Left,R569505437620gxrw,,,,,,,,,,,,
3,instruction,causal-graph1,127057,female,31,English,United States of America,Left,R569505437620gxrw,,,,,,,,,,,,
3,instruction,causal-graph1,128162,female,31,English,United States of America,Left,R569505437620gxrw,,,,,,,,,,,,
3,instruction,causal-graph1,132512,female,31,English,United States of America,Left,R569505437620gxrw,1.0,,,,,,,,,,,
3,instruction,causal-graph1,133381,female,31,English,United States of America,Left,R569505437620gxrw,,,,,,,,,,,,
3,instruction,causal-graph1,139073,female,31,English,United States of America,Left,R569505437620gxrw,1.0,,,,,,,,,,,
3,instruction,causal-graph1,140837,female,31,English,United States of America,Left,R569505437620gxrw,,,,,,,,,,,,
3,instruction,survey-multi-choice,173351,female,31,English,United States of America,Left,R569505437620gxrw,,,"{""Q0"":"" To decide what caused the activation of G"",""Q1"":"" A detector becomes active if it absorbs a radioactive particle or receives input from an active detector"",""Q2"":"" G becomes active if all of its inputs are active""}",,,,,,,,,
3,instruction,causal-graph1,175122,female,31,English,United States of America,Left,R569505437620gxrw,,,,,,,,,,,,
3,chainS_L,causal-graph1,192921,female,31,English,United States of America,Left,R569505437620gxrw,1.0,16502.939999998518,,ChainS,,,,,,,,nodeB9
3,UAS_LT,causal-graph1,209266,female,31,English,United States of America,Left,R569505437620gxrw,1.0,14628.544999999574,,AND_Gate,Unrolled,Top,Squares,State,A,,B,nodeB7
3,UAAS_LB,causal-graph1,230512,female,31,English,United States of America,Left,R569505437620gxrw,1.0,19263.15500000061,,AND_Gate,Unrolled,Bottom,Squares,Event,,A,A,nodeA7
3,UBAS_LB,causal-graph1,245596,female,31,English,United States of America,Left,R569505437620gxrw,1.0,13752.444999998259,,AND_Gate,Unrolled,Bottom,Squares,Event,,B,A,nodeB4
3,UBBS_LT,causal-graph1,279744,female,31,English,United States of America,Left,R569505437620gxrw,2.0,17673.240000000107,,AND_Gate,Unrolled,Top,Squares,Event,,B,B,nodeA37
3,UABS_LT,causal-graph1,294871,female,31,English,United States of America,Left,R569505437620gxrw,1.0,13511.215000002296,,AND_Gate,Unrolled,Top,Squares,Event,,A,B,nodeB7
3,UBS_LT,causal-graph1,307511,female,31,English,United States of America,Left,R569505437620gxrw,1.0,10898.105000000214,,AND_Gate,Unrolled,Top,Squares,State,B,,A,nodeA20
3,instruction,causal-graph1,309293,female,31,English,United States of America,Left,R569505437620gxrw,,,,,,,,,,,,
3,comment,survey-text,347353,female,31,English,United States of America,Left,R569505437620gxrw,,38041.56999999756,"{""Q0"":""I thought this experiment was very interesting.  Also, the instructions were clear and I had no technical problems.""}",,,,,,,,,
4,instruction,causal-graph1,8904,female,59,english,United States of America,Right,R565237547710gxrw,,,,,,,,,,,,
4,instruction,causal-graph1,17095,female,59,english,United States of America,Right,R565237547710gxrw,,,,,,,,,,,,
4,instruction,causal-graph1,31247,female,59,english,United States of America,Right,R565237547710gxrw,1.0,,,,,,,,,,,
4,instruction,causal-graph1,42127,female,59,english,United States of America,Right,R565237547710gxrw,,,,,,,,,,,,
4,instruction,causal-graph1,59527,female,59,english,United States of America,Right,R565237547710gxrw,1.0,,,,,,,,,,,
4,instruction,causal-graph1,69014,female,59,english,United States of America,Right,R565237547710gxrw,,,,,,,,,,,,
4,instruction,survey-multi-choice,92871,female,59,english,United States of America,Right,R565237547710gxrw,,,"{""Q0"":"" To decide what caused the activation of G"",""Q1"":"" A detector becomes active if it absorbs a radioactive particle or receives input from an active detector"",""Q2"":"" G becomes active if all of its inputs are active""}",,,,,,,,,
4,instruction,causal-graph1,96294,female,59,english,United States of America,Right,R565237547710gxrw,,,,,,,,,,,,
4,chainS_R,causal-graph1,111398,female,59,english,United States of America,Right,R565237547710gxrw,1.0,11292.199999967124,,ChainS,,,,,,,,nodeB19
4,UAS_RT,causal-graph1,133728,female,59,english,United States of America,Right,R565237547710gxrw,1.0,9108.145000005608,,AND_Gate,Unrolled,Top,Squares,State,A,,B,nodeB19
4,UBAS_RT,causal-graph1,148352,female,59,english,United States of America,Right,R565237547710gxrw,1.0,12060.790000017732,,AND_Gate,Unrolled,Top,Squares,Event,,B,A,nodeA41
4,UBBS_RT,causal-graph1,162103,female,59,english,United States of America,Right,R565237547710gxrw,1.0,10908.700000029057,,AND_Gate,Unrolled,Top,Squares,Event,,B,B,nodeB19
4,UBS_RB,causal-graph1,175528,female,59,english,United States of America,Right,R565237547710gxrw,1.0,10332.119999977294,,AND_Gate,Unrolled,Bottom,Squares,State,B,,A,nodeA20
4,UAAS_RT,causal-graph1,193480,female,59,english,United States of America,Right,R565237547710gxrw,1.0,15332.524999976156,,AND_Gate,Unrolled,Top,Squares,Event,,A,A,nodeB19
4,UABS_RB,causal-graph1,208535,female,59,english,United States of America,Right,R565237547710gxrw,1.0,12859.324999968521,,AND_Gate,Unrolled,Bottom,Squares,Event,,A,B,nodeB7
4,instruction,causal-graph1,211215,female,59,english,United States of America,Right,R565237547710gxrw,,,,,,,,,,,,
4,comment,survey-text,255992,female,59,english,United States of America,Right,R565237547710gxrw,,44757.71999999415,"{""Q0"":""I couldn't decide if it was the last one or the one that triggered the chain linking to the last one ... hmmm""}",,,,,,,,,
5,instruction,causal-graph1,27808,male,27,English,United States of America,Left,R567385837480gxrw,,,,,,,,,,,,
5,instruction,causal-graph1,34795,male,27,English,United States of America,Left,R567385837480gxrw,,,,,,,,,,,,
5,instruction,causal-graph1,54023,male,27,English,United States of America,Left,R567385837480gxrw,1.0,,,,,,,,,,,
5,instruction,causal-graph1,66189,male,27,English,United States of America,Left,R567385837480gxrw,,,,,,,,,,,,
5,instruction,causal-graph1,88356,male,27,English,United States of America,Left,R567385837480gxrw,1.0,,,,,,,,,,,
5,instruction,causal-graph1,102328,male,27,English,United States of America,Left,R567385837480gxrw,,,,,,,,,,,,
5,instruction,survey-multi-choice,137687,male,27,English,United States of America,Left,R567385837480gxrw,,,"{""Q0"":"" To decide what caused the activation of G"",""Q1"":"" A detector becomes active if it absorbs a radioactive particle or receives input from an active detector"",""Q2"":"" G becomes active if all of its inputs are active""}",,,,,,,,,
5,instruction,causal-graph1,142372,male,27,English,United States of America,Left,R567385837480gxrw,,,,,,,,,,,,
5,chainS_L,causal-graph1,169129,male,27,English,United States of America,Left,R567385837480gxrw,1.0,23968.059999999237,,ChainS,,,,,,,,nodeB19
5,UAS_LT,causal-graph1,188802,male,27,English,United States of America,Left,R567385837480gxrw,1.0,17039.409999997588,,AND_Gate,Unrolled,Top,Squares,State,A,,B,nodeB19
5,UBS_LB,causal-graph1,206968,male,27,English,United States of America,Left,R567385837480gxrw,1.0,15468.049999999463,,AND_Gate,Unrolled,Bottom,Squares,State,B,,A,nodeA41
5,UBBS_LT,causal-graph1,231314,male,27,English,United States of America,Left,R567385837480gxrw,2.0,9536.035000000964,,AND_Gate,Unrolled,Top,Squares,Event,,B,B,nodeB19
5,UAAS_LB,causal-graph1,243953,male,27,English,United States of America,Left,R567385837480gxrw,1.0,11236.690000001516,,AND_Gate,Unrolled,Bottom,Squares,Event,,A,A,nodeA41
5,UABS_LT,causal-graph1,258335,male,27,English,United States of America,Left,R567385837480gxrw,1.0,12845.899999996647,,AND_Gate,Unrolled,Top,Squares,Event,,A,B,nodeB19
5,UBAS_LB,causal-graph1,271074,male,27,English,United States of America,Left,R567385837480gxrw,1.0,11290.219999998984,,AND_Gate,Unrolled,Bottom,Squares,Event,,B,A,nodeA41
5,instruction,causal-graph1,273226,male,27,English,United States of America,Left,R567385837480gxrw,,,,,,,,,,,,
5,comment,survey-text,283730,male,27,English,United States of America,Left,R567385837480gxrw,,10497.584999997283,"{""Q0"":""""}",,,,,,,,,
6,instruction,causal-graph1,14619,male,30,English,United States of America,Right,R567276527410gxrw,,,,,,,,,,,,
6,instruction,causal-graph1,19960,male,30,English,United States of America,Right,R567276527410gxrw,,,,,,,,,,,,
6,instruction,causal-graph1,37063,male,30,English,United States of America,Right,R567276527410gxrw,1.0,,,,,,,,,,,
6,instruction,causal-graph1,45212,male,30,English,United States of America,Right,R567276527410gxrw,,,,,,,,,,,,
6,instruction,causal-graph1,77220,male,30,English,United States of America,Right,R567276527410gxrw,1.0,,,,,,,,,,,
6,instruction,causal-graph1,96486,male,30,English,United States of America,Right,R567276527410gxrw,,,,,,,,,,,,
6,instruction,survey-multi-choice,121521,male,30,English,United States of America,Right,R567276527410gxrw,,,"{""Q0"":"" To decide what caused the activation of G"",""Q1"":"" A detector becomes active if it absorbs a radioactive particle"",""Q2"":"" G becomes active if all of its inputs are active""}",,,,,,,,,
6,instruction,causal-graph1,124719,male,30,English,United States of America,Right,R567276527410gxrw,,,,,,,,,,,,
6,instruction,causal-graph1,126006,male,30,English,United States of America,Right,R567276527410gxrw,,,,,,,,,,,,
6,instruction,causal-graph1,127426,male,30,English,United States of America,Right,R567276527410gxrw,,,,,,,,,,,,
6,instruction,causal-graph1,131853,male,30,English,United States of America,Right,R567276527410gxrw,1.0,,,,,,,,,,,
6,instruction,causal-graph1,132698,male,30,English,United States of America,Right,R567276527410gxrw,,,,,,,,,,,,
6,instruction,causal-graph1,138747,male,30,English,United States of America,Right,R567276527410gxrw,1.0,,,,,,,,,,,
6,instruction,causal-graph1,139746,male,30,English,United States of America,Right,R567276527410gxrw,,,,,,,,,,,,
6,instruction,survey-multi-choice,182516,male,30,English,United States of America,Right,R567276527410gxrw,,,"{""Q0"":"" To decide what caused the activation of G"",""Q1"":"" A detector becomes active if it absorbs a radioactive particle or receives input from an active detector"",""Q2"":"" G becomes active if all of its inputs are active""}",,,,,,,,,
6,instruction,causal-graph1,185653,male,30,English,United States of America,Right,R567276527410gxrw,,,,,,,,,,,,
6,UBAS_RB,causal-graph1,233917,male,30,English,United States of America,Right,R567276527410gxrw,3.0,10249.490000000163,,AND_Gate,Unrolled,Bottom,Squares,Event,,B,A,nodeB4
6,UBBS_RT,causal-graph1,245353,male,30,English,United States of America,Right,R567276527410gxrw,1.0,9691.754999999828,,AND_Gate,Unrolled,Top,Squares,Event,,B,B,nodeB2
6,UBS_RB,causal-graph1,262075,male,30,English,United States of America,Right,R567276527410gxrw,1.0,14740.970000000727,,AND_Gate,Unrolled,Bottom,Squares,State,B,,A,nodeA20
6,UAAS_RB,causal-graph1,275530,male,30,English,United States of America,Right,R567276527410gxrw,1.0,11665.825000000012,,AND_Gate,Unrolled,Bottom,Squares,Event,,A,A,nodeA7
6,UAS_RB,causal-graph1,286774,male,30,English,United States of America,Right,R567276527410gxrw,1.0,9097.65499999962,,AND_Gate,Unrolled,Bottom,Squares,State,A,,B,nodeB7
6,chainS_R,causal-graph1,299256,male,30,English,United States of America,Right,R567276527410gxrw,1.0,9407.990000001562,,ChainS,,,,,,,,nodeB9
6,UABS_RT,causal-graph1,316286,male,30,English,United States of America,Right,R567276527410gxrw,1.0,15133.84500000032,,AND_Gate,Unrolled,Top,Squares,Event,,A,B,nodeA7
6,instruction,causal-graph1,318199,male,30,English,United States of America,Right,R567276527410gxrw,,,,,,,,,,,,
6,comment,survey-text,327082,male,30,English,United States of America,Right,R567276527410gxrw,,8871.585000000778,"{""Q0"":""""}",,,,,,,,,
7,instruction,causal-graph1,4800,female,48,english,United States of America,Right,R561811867620gxrw,,,,,,,,,,,,
7,instruction,causal-graph1,9223,female,48,english,United States of America,Right,R561811867620gxrw,,,,,,,,,,,,
7,instruction,causal-graph1,36320,female,48,english,United States of America,Right,R561811867620gxrw,2.0,,,,,,,,,,,
7,instruction,causal-graph1,43447,female,48,english,United States of America,Right,R561811867620gxrw,,,,,,,,,,,,
7,instruction,causal-graph1,67974,female,48,english,United States of America,Right,R561811867620gxrw,1.0,,,,,,,,,,,
7,instruction,causal-graph1,79478,female,48,english,United States of America,Right,R561811867620gxrw,,,,,,,,,,,,
7,instruction,survey-multi-choice,109278,female,48,english,United States of America,Right,R561811867620gxrw,,,"{""Q0"":"" To decide what caused the activation of G"",""Q1"":"" A detector becomes active if it absorbs a radioactive particle"",""Q2"":"" G becomes active if it absorbs a radioactive particle""}",,,,,,,,,
7,instruction,causal-graph1,113101,female,48,english,United States of America,Right,R561811867620gxrw,,,,,,,,,,,,
7,instruction,causal-graph1,115894,female,48,english,United States of America,Right,R561811867620gxrw,,,,,,,,,,,,
7,instruction,causal-graph1,120118,female,48,english,United States of America,Right,R561811867620gxrw,,,,,,,,,,,,
7,instruction,causal-graph1,146334,female,48,english,United States of America,Right,R561811867620gxrw,1.0,,,,,,,,,,,
7,instruction,causal-graph1,155701,female,48,english,United States of America,Right,R561811867620gxrw,,,,,,,,,,,,
7,instruction,causal-graph1,166533,female,48,english,United States of America,Right,R561811867620gxrw,1.0,,,,,,,,,,,
7,instruction,causal-graph1,172237,female,48,english,United States of America,Right,R561811867620gxrw,,,,,,,,,,,,
7,instruction,survey-multi-choice,208613,female,48,english,United States of America,Right,R561811867620gxrw,,,"{""Q0"":"" To decide what caused the activation of G"",""Q1"":"" A detector becomes active if it absorbs a radioactive particle"",""Q2"":"" G becomes active if all of its inputs are active""}",,,,,,,,,
7,instruction,causal-graph1,211428,female,48,english,United States of America,Right,R561811867620gxrw,,,,,,,,,,,,
7,instruction,causal-graph1,213268,female,48,english,United States of America,Right,R561811867620gxrw,,,,,,,,,,,,
7,instruction,causal-graph1,214804,female,48,english,United States of America,Right,R561811867620gxrw,,,,,,,,,,,,
7,instruction,causal-graph1,220004,female,48,english,United States of America,Right,R561811867620gxrw,1.0,,,,,,,,,,,
7,instruction,causal-graph1,222588,female,48,english,United States of America,Right,R561811867620gxrw,,,,,,,,,,,,
7,instruction,causal-graph1,229724,female,48,english,United States of America,Right,R561811867620gxrw,1.0,,,,,,,,,,,
7,instruction,causal-graph1,232276,female,48,english,United States of America,Right,R561811867620gxrw,,,,,,,,,,,,
7,instruction,survey-multi-choice,286054,female,48,english,United States of America,Right,R561811867620gxrw,,,"{""Q0"":"" To decide what caused the activation of G"",""Q1"":"" A detector becomes active if it absorbs a radioactive particle or receives input from an active detector"",""Q2"":"" G becomes active if all of its inputs are active""}",,,,,,,,,
7,instruction,causal-graph1,288348,female,48,english,United States of America,Right,R561811867620gxrw,,,,,,,,,,,,
7,UAAS_RB,causal-graph1,332547,female,48,english,United States of America,Right,R561811867620gxrw,3.0,14642.109999986133,,AND_Gate,Unrolled,Bottom,Squares,Event,,A,A,nodeB20
7,UBBS_RB,causal-graph1,362468,female,48,english,United States of America,Right,R561811867620gxrw,2.0,14667.465000005903,,AND_Gate,Unrolled,Bottom,Squares,Event,,B,B,nodeA41
7,UBS_RB,causal-graph1,377851,female,48,english,United States of America,Right,R561811867620gxrw,1.0,12419.530000013765,,AND_Gate,Unrolled,Bottom,Squares,State,B,,A,nodeA41
7,UABS_RB,causal-graph1,401964,female,48,english,United States of America,Right,R561811867620gxrw,1.0,20188.575000007404,,AND_Gate,Unrolled,Bottom,Squares,Event,,A,B,nodeB19
7,UAS_RB,causal-graph1,415699,female,48,english,United States of America,Right,R561811867620gxrw,1.0,11466.519999987211,,AND_Gate,Unrolled,Bottom,Squares,State,A,,B,nodeB19
7,chainS_R,causal-graph1,435330,female,48,english,United States of America,Right,R561811867620gxrw,1.0,15531.87499998603,,ChainS,,,,,,,,nodeB19
7,UBAS_RB,causal-graph1,472769,female,48,english,United States of America,Right,R561811867620gxrw,1.0,12523.519999987913,,AND_Gate,Unrolled,Bottom,Squares,Event,,B,A,nodeA41
7,instruction,causal-graph1,475369,female,48,english,United States of America,Right,R561811867620gxrw,,,,,,,,,,,,
7,comment,survey-text,478498,female,48,english,United States of America,Right,R561811867620gxrw,,3110.3650000004563,"{""Q0"":""""}",,,,,,,,,
8,instruction,causal-graph1,5119,male,47,english,United States of America,Left,R568774137640gxrw,,,,,,,,,,,,
8,instruction,causal-graph1,6822,male,47,english,United States of America,Left,R568774137640gxrw,,,,,,,,,,,,
8,instruction,causal-graph1,12567,male,47,english,United States of America,Left,R568774137640gxrw,1.0,,,,,,,,,,,
8,instruction,causal-graph1,14695,male,47,english,United States of America,Left,R568774137640gxrw,,,,,,,,,,,,
8,instruction,causal-graph1,22695,male,47,english,United States of America,Left,R568774137640gxrw,1.0,,,,,,,,,,,
8,instruction,causal-graph1,24967,male,47,english,United States of America,Left,R568774137640gxrw,,,,,,,,,,,,
8,instruction,survey-multi-choice,32080,male,47,english,United States of America,Left,R568774137640gxrw,,,"{""Q0"":"" To decide what caused the activation of G"",""Q1"":"" A detector becomes active if it absorbs a radioactive particle or receives input from an active detector"",""Q2"":"" G becomes active if all of its inputs are active""}",,,,,,,,,
8,instruction,causal-graph1,34562,male,47,english,United States of America,Left,R568774137640gxrw,,,,,,,,,,,,
8,UBS_LB,causal-graph1,52695,male,47,english,United States of America,Left,R568774137640gxrw,1.0,15782.000000122936,,AND_Gate,Unrolled,Bottom,Squares,State,B,,A,nodeA11
8,UABS_LB,causal-graph1,71686,male,47,english,United States of America,Left,R568774137640gxrw,1.0,15288.000000175089,,AND_Gate,Unrolled,Bottom,Squares,Event,,A,B,nodeA4
8,UBAS_LB,causal-graph1,88119,male,47,english,United States of America,Left,R568774137640gxrw,1.0,12807.999999728054,,AND_Gate,Unrolled,Bottom,Squares,Event,,B,A,nodeA4
8,UAS_LB,causal-graph1,100847,male,47,english,United States of America,Left,R568774137640gxrw,1.0,9239.999999757856,,AND_Gate,Unrolled,Bottom,Squares,State,A,,B,nodeB2
8,UAAS_LB,causal-graph1,117984,male,47,english,United States of America,Left,R568774137640gxrw,1.0,14194.000000134109,,AND_Gate,Unrolled,Bottom,Squares,Event,,A,A,nodeB3
8,chainS_L,causal-graph1,135166,male,47,english,United States of America,Left,R568774137640gxrw,1.0,13313.000000081956,,ChainS,,,,,,,,nodeB4
8,UBBS_LB,causal-graph1,147006,male,47,english,United States of America,Left,R568774137640gxrw,1.0,9307.000000029802,,AND_Gate,Unrolled,Bottom,Squares,Event,,B,B,nodeA2
8,instruction,causal-graph1,150232,male,47,english,United States of America,Left,R568774137640gxrw,,,,,,,,,,,,
8,comment,survey-text,163198,male,47,english,United States of America,Left,R568774137640gxrw,,12944.000000134109,"{""Q0"":""nothing good task""}",,,,,,,,,
9,instruction,causal-graph1,27930,male,34,English,United States of America,Right,R564870127320gxrw,,,,,,,,,,,,
9,instruction,causal-graph1,44766,male,34,English,United States of America,Right,R564870127320gxrw,,,,,,,,,,,,
9,instruction,causal-graph1,62447,male,34,English,United States of America,Right,R564870127320gxrw,1.0,,,,,,,,,,,
9,instruction,causal-graph1,80096,male,34,English,United States of America,Right,R564870127320gxrw,,,,,,,,,,,,
9,instruction,causal-graph1,102098,male,34,English,United States of America,Right,R564870127320gxrw,1.0,,,,,,,,,,,
9,instruction,causal-graph1,108800,male,34,English,United States of America,Right,R564870127320gxrw,,,,,,,,,,,,
9,instruction,survey-multi-choice,138750,male,34,English,United States of America,Right,R564870127320gxrw,,,"{""Q0"":"" To decide what caused the activation of G"",""Q1"":"" A detector becomes active if it absorbs a radioactive particle or receives input from an active detector"",""Q2"":"" G becomes active if all of its inputs are active""}",,,,,,,,,
9,instruction,causal-graph1,140600,male,34,English,United States of America,Right,R564870127320gxrw,,,,,,,,,,,,
9,UBBS_RB,causal-graph1,181465,male,34,English,United States of America,Right,R564870127320gxrw,3.0,14437.685000000754,,AND_Gate,Unrolled,Bottom,Squares,Event,,B,B,nodeA37
9,UABS_RB,causal-graph1,201325,male,34,English,United States of America,Right,R564870127320gxrw,1.0,18113.300000000858,,AND_Gate,Unrolled,Bottom,Squares,Event,,A,B,nodeB7
9,UBS_RT,causal-graph1,215354,male,34,English,United States of America,Right,R564870127320gxrw,1.0,11386.979999999341,,AND_Gate,Unrolled,Top,Squares,State,B,,A,nodeA20
9,UAS_RB,causal-graph1,226639,male,34,English,United States of America,Right,R564870127320gxrw,1.0,9773.270000001474,,AND_Gate,Unrolled,Bottom,Squares,State,A,,B,nodeB7
9,UBAS_RT,causal-graph1,240416,male,34,English,United States of America,Right,R564870127320gxrw,1.0,12105.349999997998,,AND_Gate,Unrolled,Top,Squares,Event,,B,A,nodeA25
9,chainS_R,causal-graph1,253291,male,34,English,United States of America,Right,R564870127320gxrw,1.0,10439.03500000306,,ChainS,,,,,,,,nodeB9
9,UAAS_RB,causal-graph1,278450,male,34,English,United States of America,Right,R564870127320gxrw,2.0,13307.070000002568,,AND_Gate,Unrolled,Bottom,Squares,Event,,A,A,nodeB7
9,instruction,causal-graph1,281004,male,34,English,United States of America,Right,R564870127320gxrw,,,,,,,,,,,,
9,comment,survey-text,285437,male,34,English,United States of America,Right,R564870127320gxrw,,4427.425000001676,"{""Q0"":""""}",,,,,,,,,
10,instruction,causal-graph1,6543,male,46,english,United States of America,Right,R562699637900gxrw,,,,,,,,,,,,
10,instruction,causal-graph1,10934,male,46,english,United States of America,Right,R562699637900gxrw,,,,,,,,,,,,
10,instruction,causal-graph1,26540,male,46,english,United States of America,Right,R562699637900gxrw,1.0,,,,,,,,,,,
10,instruction,causal-graph1,38204,male,46,english,United States of America,Right,R562699637900gxrw,,,,,,,,,,,,
10,instruction,causal-graph1,55040,male,46,english,United States of America,Right,R562699637900gxrw,1.0,,,,,,,,,,,
10,instruction,causal-graph1,61370,male,46,english,United States of America,Right,R562699637900gxrw,,,,,,,,,,,,
10,instruction,survey-multi-choice,99993,male,46,english,United States of America,Right,R562699637900gxrw,,,"{""Q0"":"" To decide what caused the activation of G"",""Q1"":"" A detector becomes active if it absorbs a radioactive particle or receives input from an active detector"",""Q2"":"" G becomes active if all of its inputs are active""}",,,,,,,,,
10,instruction,causal-graph1,102242,male,46,english,United States of America,Right,R562699637900gxrw,,,,,,,,,,,,
10,UBAS_RT,causal-graph1,117694,male,46,english,United States of America,Right,R562699637900gxrw,1.0,14154.129999922588,,AND_Gate,Unrolled,Top,Squares,Event,,B,A,nodeB4
10,UABS_RT,causal-graph1,142294,male,46,english,United States of America,Right,R562699637900gxrw,1.0,19599.285000003878,,AND_Gate,Unrolled,Top,Squares,Event,,A,B,nodeB7
10,UAS_RB,causal-graph1,155453,male,46,english,United States of America,Right,R562699637900gxrw,1.0,10543.145000003278,,AND_Gate,Unrolled,Bottom,Squares,State,A,,B,nodeB7
10,UBS_RB,causal-graph1,168713,male,46,english,United States of America,Right,R562699637900gxrw,1.0,11588.284999830646,,AND_Gate,Unrolled,Bottom,Squares,State,B,,A,nodeA20
10,chainS_R,causal-graph1,180711,male,46,english,United States of America,Right,R562699637900gxrw,1.0,10768.23000004515,,ChainS,,,,,,,,nodeB9
10,UAAS_RT,causal-graph1,195314,male,46,english,United States of America,Right,R562699637900gxrw,1.0,13201.765000121668,,AND_Gate,Unrolled,Top,Squares,Event,,A,A,nodeA7
10,UBBS_RB,causal-graph1,207404,male,46,english,United States of America,Right,R562699637900gxrw,1.0,10593.39000005275,,AND_Gate,Unrolled,Bottom,Squares,Event,,B,B,nodeB2
10,instruction,causal-graph1,208985,male,46,english,United States of America,Right,R562699637900gxrw,,,,,,,,,,,,
10,comment,survey-text,212545,male,46,english,United States of America,Right,R562699637900gxrw,,3554.6849998645484,"{""Q0"":""""}",,,,,,,,,
11,instruction,causal-graph1,9769,male,49,ENGLISH,United States of America,Right,R562050947820gxrw,,,,,,,,,,,,
11,instruction,causal-graph1,18258,male,49,ENGLISH,United States of America,Right,R562050947820gxrw,,,,,,,,,,,,
11,instruction,causal-graph1,34902,male,49,ENGLISH,United States of America,Right,R562050947820gxrw,1.0,,,,,,,,,,,
11,instruction,causal-graph1,40767,male,49,ENGLISH,United States of America,Right,R562050947820gxrw,,,,,,,,,,,,
11,instruction,causal-graph1,62489,male,49,ENGLISH,United States of America,Right,R562050947820gxrw,1.0,,,,,,,,,,,
11,instruction,causal-graph1,78766,male,49,ENGLISH,United States of America,Right,R562050947820gxrw,,,,,,,,,,,,
11,instruction,survey-multi-choice,143560,male,49,ENGLISH,United States of America,Right,R562050947820gxrw,,,"{""Q0"":"" To decide what caused the activation of G"",""Q1"":"" A detector becomes active if it absorbs a radioactive particle or receives input from an active detector"",""Q2"":"" G becomes active if all of its inputs are active""}",,,,,,,,,
11,instruction,causal-graph1,168618,male,49,ENGLISH,United States of America,Right,R562050947820gxrw,,,,,,,,,,,,
11,UABS_RB,causal-graph1,295238,male,49,ENGLISH,United States of America,Right,R562050947820gxrw,3.0,44601.00000002421,,AND_Gate,Unrolled,Bottom,Squares,Event,,A,B,nodeB20
11,UBBS_RB,causal-graph1,321520,male,49,ENGLISH,United States of America,Right,R562050947820gxrw,1.0,17721.999999834225,,AND_Gate,Unrolled,Bottom,Squares,Event,,B,B,nodeB20
11,UAAS_RT,causal-graph1,352526,male,49,ENGLISH,United States of America,Right,R562050947820gxrw,1.0,24225.00000009313,,AND_Gate,Unrolled,Top,Squares,Event,,A,A,nodeB20
11,UBAS_RB,causal-graph1,380244,male,49,ENGLISH,United States of America,Right,R562050947820gxrw,1.0,22466.999999945987,,AND_Gate,Unrolled,Bottom,Squares,Event,,B,A,nodeA41
11,chainS_R,causal-graph1,408651,male,49,ENGLISH,United States of America,Right,R562050947820gxrw,1.0,20251.999999862164,,ChainS,,,,,,,,nodeB20
11,UAS_RT,causal-graph1,435624,male,49,ENGLISH,United States of America,Right,R562050947820gxrw,1.0,19351.999999955297,,AND_Gate,Unrolled,Top,Squares,State,A,,B,nodeB20
11,UBS_RT,causal-graph1,460564,male,49,ENGLISH,United States of America,Right,R562050947820gxrw,1.0,17795.999999856576,,AND_Gate,Unrolled,Top,Squares,State,B,,A,nodeB20
11,instruction,causal-graph1,471564,male,49,ENGLISH,United States of America,Right,R562050947820gxrw,,,,,,,,,,,,
11,comment,survey-text,503429,male,49,ENGLISH,United States of America,Right,R562050947820gxrw,,31715.00000008382,"{""Q0"":""VErY inTErEsTIng.goOD""}",,,,,,,,,
12,instruction,causal-graph1,10328,female,52,English,United States of America,Right,R562955957430gxrw,,,,,,,,,,,,
12,instruction,causal-graph1,16699,female,52,English,United States of America,Right,R562955957430gxrw,,,,,,,,,,,,
12,instruction,causal-graph1,40942,female,52,English,United States of America,Right,R562955957430gxrw,1.0,,,,,,,,,,,
12,instruction,causal-graph1,62702,female,52,English,United States of America,Right,R562955957430gxrw,,,,,,,,,,,,
12,instruction,causal-graph1,80493,female,52,English,United States of America,Right,R562955957430gxrw,1.0,,,,,,,,,,,
12,instruction,causal-graph1,94979,female,52,English,United States of America,Right,R562955957430gxrw,,,,,,,,,,,,
12,instruction,survey-multi-choice,146234,female,52,English,United States of America,Right,R562955957430gxrw,,,"{""Q0"":"" To decide what caused the activation of G"",""Q1"":"" A detector becomes active if it receives input from an active detector"",""Q2"":"" G becomes active if all of its inputs are active""}",,,,,,,,,
12,instruction,causal-graph1,150307,female,52,English,United States of America,Right,R562955957430gxrw,,,,,,,,,,,,
12,instruction,causal-graph1,152445,female,52,English,United States of America,Right,R562955957430gxrw,,,,,,,,,,,,
12,instruction,causal-graph1,156389,female,52,English,United States of America,Right,R562955957430gxrw,,,,,,,,,,,,
12,instruction,causal-graph1,170880,female,52,English,United States of America,Right,R562955957430gxrw,1.0,,,,,,,,,,,
12,instruction,causal-graph1,172448,female,52,English,United States of America,Right,R562955957430gxrw,,,,,,,,,,,,
12,instruction,causal-graph1,178758,female,52,English,United States of America,Right,R562955957430gxrw,1.0,,,,,,,,,,,
12,instruction,causal-graph1,180372,female,52,English,United States of America,Right,R562955957430gxrw,,,,,,,,,,,,
12,instruction,survey-multi-choice,190982,female,52,English,United States of America,Right,R562955957430gxrw,,,"{""Q0"":"" To decide what caused the activation of G"",""Q1"":"" A detector becomes active if it absorbs a radioactive particle"",""Q2"":"" G becomes active if all of its inputs are active""}",,,,,,,,,
12,instruction,causal-graph1,195434,female,52,English,United States of America,Right,R562955957430gxrw,,,,,,,,,,,,
12,instruction,causal-graph1,199161,female,52,English,United States of America,Right,R562955957430gxrw,,,,,,,,,,,,
12,instruction,causal-graph1,201329,female,52,English,United States of America,Right,R562955957430gxrw,,,,,,,,,,,,
12,instruction,causal-graph1,211347,female,52,English,United States of America,Right,R562955957430gxrw,1.0,,,,,,,,,,,
12,instruction,causal-graph1,218751,female,52,English,United States of America,Right,R562955957430gxrw,,,,,,,,,,,,
12,instruction,causal-graph1,232849,female,52,English,United States of America,Right,R562955957430gxrw,1.0,,,,,,,,,,,
12,instruction,causal-graph1,234617,female,52,English,United States of America,Right,R562955957430gxrw,,,,,,,,,,,,
12,instruction,survey-multi-choice,257490,female,52,English,United States of America,Right,R562955957430gxrw,,,"{""Q0"":"" To decide what caused the activation of G"",""Q1"":"" A detector becomes active if it absorbs a radioactive particle or receives input from an active detector"",""Q2"":"" G becomes active if all of its inputs are active""}",,,,,,,,,
12,instruction,causal-graph1,265706,female,52,English,United States of America,Right,R562955957430gxrw,,,,,,,,,,,,
12,UAS_RB,causal-graph1,308844,female,52,English,United States of America,Right,R562955957430gxrw,2.0,27436.830000000544,,AND_Gate,Unrolled,Bottom,Squares,State,A,,B,nodeB6
12,UAAS_RT,causal-graph1,322197,female,52,English,United States of America,Right,R562955957430gxrw,1.0,10444.510000001172,,AND_Gate,Unrolled,Top,Squares,Event,,A,A,nodeA6
12,UBBS_RT,causal-graph1,346411,female,52,English,United States of America,Right,R562955957430gxrw,1.0,22220.059999999707,,AND_Gate,Unrolled,Top,Squares,Event,,B,B,nodeB1
12,UBS_RT,causal-graph1,360016,female,52,English,United States of America,Right,R562955957430gxrw,1.0,10712.265000000129,,AND_Gate,Unrolled,Top,Squares,State,B,,A,nodeA19
12,chainS_R,causal-graph1,370356,female,52,English,United States of America,Right,R562955957430gxrw,1.0,8412.500000000351,,ChainS,,,,,,,,nodeB8
12,UBAS_RT,causal-graph1,390035,female,52,English,United States of America,Right,R562955957430gxrw,1.0,17646.134999999078,,AND_Gate,Unrolled,Top,Squares,Event,,B,A,nodeB3
12,UABS_RB,causal-graph1,415171,female,52,English,United States of America,Right,R562955957430gxrw,1.0,23307.764999999552,,AND_Gate,Unrolled,Bottom,Squares,Event,,A,B,nodeB6
12,instruction,causal-graph1,418177,female,52,English,United States of America,Right,R562955957430gxrw,,,,,,,,,,,,
12,comment,survey-text,424350,female,52,English,United States of America,Right,R562955957430gxrw,,6162.630000000703,"{""Q0"":""""}",,,,,,,,,
13,instruction,causal-graph1,67604,female,32,English,United States of America,Left,R568249427370gxrw,,,,,,,,,,,,
13,instruction,causal-graph1,77795,female,32,English,United States of America,Left,R568249427370gxrw,,,,,,,,,,,,
13,instruction,causal-graph1,257979,female,32,English,United States of America,Left,R568249427370gxrw,1.0,,,,,,,,,,,
13,instruction,causal-graph1,275562,female,32,English,United States of America,Left,R568249427370gxrw,,,,,,,,,,,,
13,instruction,causal-graph1,364410,female,32,English,United States of America,Left,R568249427370gxrw,1.0,,,,,,,,,,,
13,instruction,causal-graph1,370738,female,32,English,United States of America,Left,R568249427370gxrw,,,,,,,,,,,,
13,instruction,survey-multi-choice,393379,female,32,English,United States of America,Left,R568249427370gxrw,,,"{""Q0"":"" To decide what caused the activation of G"",""Q1"":"" A detector becomes active if it absorbs a radioactive particle"",""Q2"":"" G becomes active if all of its inputs are active""}",,,,,,,,,
13,instruction,causal-graph1,395850,female,32,English,United States of America,Left,R568249427370gxrw,,,,,,,,,,,,
13,instruction,causal-graph1,397938,female,32,English,United States of America,Left,R568249427370gxrw,,,,,,,,,,,,
13,instruction,causal-graph1,399994,female,32,English,United States of America,Left,R568249427370gxrw,,,,,,,,,,,,
13,instruction,causal-graph1,414961,female,32,English,United States of America,Left,R568249427370gxrw,1.0,,,,,,,,,,,
13,instruction,causal-graph1,422729,female,32,English,United States of America,Left,R568249427370gxrw,,,,,,,,,,,,
13,instruction,causal-graph1,432361,female,32,English,United States of America,Left,R568249427370gxrw,1.0,,,,,,,,,,,
13,instruction,causal-graph1,434673,female,32,English,United States of America,Left,R568249427370gxrw,,,,,,,,,,,,
13,instruction,survey-multi-choice,449970,female,32,English,United States of America,Left,R568249427370gxrw,,,"{""Q0"":"" To decide what caused the activation of G"",""Q1"":"" A detector becomes active if it absorbs a radioactive particle or receives input from an active detector"",""Q2"":"" G becomes active if all of its inputs are active""}",,,,,,,,,
13,instruction,causal-graph1,451457,female,32,English,United States of America,Left,R568249427370gxrw,,,,,,,,,,,,
13,UAAS_LB,causal-graph1,486202,female,32,English,United States of America,Left,R568249427370gxrw,2.0,17908.684999998542,,AND_Gate,Unrolled,Bottom,Squares,Event,,A,A,nodeB20
13,UBBS_LT,causal-graph1,499961,female,32,English,United States of America,Left,R568249427370gxrw,1.0,12219.599999998465,,AND_Gate,Unrolled,Top,Squares,Event,,B,B,nodeB20
13,UAS_LB,causal-graph1,523129,female,32,English,United States of America,Left,R568249427370gxrw,1.0,21532.694999999952,,AND_Gate,Unrolled,Bottom,Squares,State,A,,B,nodeB7
13,UABS_LT,causal-graph1,551289,female,32,English,United States of America,Left,R568249427370gxrw,1.0,26899.124999999884,,AND_Gate,Unrolled,Top,Squares,Event,,A,B,nodeB7
13,chainS_L,causal-graph1,565056,female,32,English,United States of America,Left,R568249427370gxrw,1.0,12068.285000001311,,ChainS,,,,,,,,nodeB20
13,UBAS_LT,causal-graph1,579320,female,32,English,United States of America,Left,R568249427370gxrw,1.0,12356.444999999485,,AND_Gate,Unrolled,Top,Squares,Event,,B,A,nodeB20
13,UBS_LT,causal-graph1,592944,female,32,English,United States of America,Left,R568249427370gxrw,1.0,11068.564999999597,,AND_Gate,Unrolled,Top,Squares,State,B,,A,nodeB20
13,instruction,causal-graph1,607329,female,32,English,United States of America,Left,R568249427370gxrw,,,,,,,,,,,,
13,comment,survey-text,613361,female,32,English,United States of America,Left,R568249427370gxrw,,6023.365000000922,"{""Q0"":""Thank you!""}",,,,,,,,,
14,instruction,causal-graph1,9258,male,32,English,United States of America,Left,R561811987830gxrw,,,,,,,,,,,,
14,instruction,causal-graph1,18654,male,32,English,United States of America,Left,R561811987830gxrw,,,,,,,,,,,,
14,instruction,causal-graph1,81358,male,32,English,United States of America,Left,R561811987830gxrw,1.0,,,,,,,,,,,
14,instruction,causal-graph1,84052,male,32,English,United States of America,Left,R561811987830gxrw,,,,,,,,,,,,
14,instruction,causal-graph1,93783,male,32,English,United States of America,Left,R561811987830gxrw,1.0,,,,,,,,,,,
14,instruction,causal-graph1,105342,male,32,English,United States of America,Left,R561811987830gxrw,,,,,,,,,,,,
14,instruction,survey-multi-choice,399988,male,32,English,United States of America,Left,R561811987830gxrw,,,"{""Q0"":"" To find out if the Gauge of Critical Moment (G) is activated or not"",""Q1"":"" A detector becomes active if it absorbs a radioactive particle or receives input from an active detector"",""Q2"":"" G becomes active if it absorbs a radioactive particle""}",,,,,,,,,
14,instruction,causal-graph1,412736,male,32,English,United States of America,Left,R561811987830gxrw,,,,,,,,,,,,
14,instruction,causal-graph1,415604,male,32,English,United States of America,Left,R561811987830gxrw,,,,,,,,,,,,
14,instruction,causal-graph1,418284,male,32,English,United States of America,Left,R561811987830gxrw,,,,,,,,,,,,
14,instruction,causal-graph1,426366,male,32,English,United States of America,Left,R561811987830gxrw,1.0,,,,,,,,,,,
14,instruction,causal-graph1,475375,male,32,English,United States of America,Left,R561811987830gxrw,,,,,,,,,,,,
14,instruction,causal-graph1,491064,male,32,English,United States of America,Left,R561811987830gxrw,1.0,,,,,,,,,,,
14,instruction,causal-graph1,493969,male,32,English,United States of America,Left,R561811987830gxrw,,,,,,,,,,,,
14,instruction,survey-multi-choice,527323,male,32,English,United States of America,Left,R561811987830gxrw,,,"{""Q0"":"" To decide what caused the activation of G"",""Q1"":"" A detector becomes active if it absorbs a radioactive particle"",""Q2"":"" G becomes active if all of its inputs are active""}",,,,,,,,,
14,instruction,causal-graph1,530818,male,32,English,United States of America,Left,R561811987830gxrw,,,,,,,,,,,,
14,instruction,causal-graph1,537484,male,32,English,United States of America,Left,R561811987830gxrw,,,,,,,,,,,,
14,instruction,causal-graph1,559571,male,32,English,United States of America,Left,R561811987830gxrw,,,,,,,,,,,,
14,instruction,causal-graph1,577359,male,32,English,United States of America,Left,R561811987830gxrw,1.0,,,,,,,,,,,
14,instruction,causal-graph1,588610,male,32,English,United States of America,Left,R561811987830gxrw,,,,,,,,,,,,
14,instruction,causal-graph1,603673,male,32,English,United States of America,Left,R561811987830gxrw,1.0,,,,,,,,,,,
14,instruction,causal-graph1,614538,male,32,English,United States of America,Left,R561811987830gxrw,,,,,,,,,,,,
14,instruction,survey-multi-choice,781293,male,32,English,United States of America,Left,R561811987830gxrw,,,"{""Q0"":"" To decide what caused the activation of G"",""Q1"":"" A detector becomes active if it absorbs a radioactive particle or receives input from an active detector"",""Q2"":"" G becomes active if all of its inputs are active""}",,,,,,,,,
14,instruction,causal-graph1,801712,male,32,English,United States of America,Left,R561811987830gxrw,,,,,,,,,,,,
14,UBBS_LT,causal-graph1,983826,male,32,English,United States of America,Left,R561811987830gxrw,3.0,53783.000000054024,,AND_Gate,Unrolled,Top,Squares,Event,,B,B,nodeA27
14,UAS_LB,causal-graph1,1026885,male,32,English,United States of America,Left,R561811987830gxrw,1.0,18888.00000003539,,AND_Gate,Unrolled,Bottom,Squares,State,A,,B,nodeA1
14,UABS_LT,causal-graph1,1070669,male,32,English,United States of America,Left,R561811987830gxrw,1.0,40350.99999979138,,AND_Gate,Unrolled,Top,Squares,Event,,A,B,nodeB5
14,UAAS_LB,causal-graph1,1090948,male,32,English,United States of America,Left,R561811987830gxrw,1.0,15364.000000059605,,AND_Gate,Unrolled,Bottom,Squares,Event,,A,A,nodeA6
14,UBAS_LT,causal-graph1,1124447,male,32,English,United States of America,Left,R561811987830gxrw,1.0,23029.99999979511,,AND_Gate,Unrolled,Top,Squares,Event,,B,A,nodeA1
14,chainS_L,causal-graph1,1174556,male,32,English,United States of America,Left,R561811987830gxrw,1.0,44314.99999994412,,ChainS,,,,,,,,nodeB2
14,UBS_LB,causal-graph1,1198185,male,32,English,United States of America,Left,R561811987830gxrw,1.0,20483.00000000745,,AND_Gate,Unrolled,Bottom,Squares,State,B,,A,nodeA18
14,instruction,causal-graph1,1205947,male,32,English,United States of America,Left,R561811987830gxrw,,,,,,,,,,,,
14,comment,survey-text,1214566,male,32,English,United States of America,Left,R561811987830gxrw,,8577.999999979509,"{""Q0"":""""}",,,,,,,,,
15,instruction,causal-graph1,3610,male,31,english,United States of America,Right,R562203687270gxrw,,,,,,,,,,,,
15,instruction,causal-graph1,12889,male,31,english,United States of America,Right,R562203687270gxrw,,,,,,,,,,,,
15,instruction,causal-graph1,33096,male,31,english,United States of America,Right,R562203687270gxrw,1.0,,,,,,,,,,,
15,instruction,causal-graph1,40386,male,31,english,United States of America,Right,R562203687270gxrw,,,,,,,,,,,,
15,instruction,causal-graph1,47360,male,31,english,United States of America,Right,R562203687270gxrw,1.0,,,,,,,,,,,
15,instruction,causal-graph1,49549,male,31,english,United States of America,Right,R562203687270gxrw,,,,,,,,,,,,
15,instruction,survey-multi-choice,80068,male,31,english,United States of America,Right,R562203687270gxrw,,,"{""Q0"":"" To decide what caused the activation of G"",""Q1"":"" A detector becomes active if it absorbs a radioactive particle or receives input from an active detector"",""Q2"":"" G becomes active if at least one of its inputs is active""}",,,,,,,,,
15,instruction,causal-graph1,82575,male,31,english,United States of America,Right,R562203687270gxrw,,,,,,,,,,,,
15,instruction,causal-graph1,84770,male,31,english,United States of America,Right,R562203687270gxrw,,,,,,,,,,,,
15,instruction,causal-graph1,86211,male,31,english,United States of America,Right,R562203687270gxrw,,,,,,,,,,,,
15,instruction,causal-graph1,95998,male,31,english,United States of America,Right,R562203687270gxrw,1.0,,,,,,,,,,,
15,instruction,causal-graph1,101664,male,31,english,United States of America,Right,R562203687270gxrw,,,,,,,,,,,,
15,instruction,causal-graph1,112301,male,31,english,United States of America,Right,R562203687270gxrw,1.0,,,,,,,,,,,
15,instruction,causal-graph1,114094,male,31,english,United States of America,Right,R562203687270gxrw,,,,,,,,,,,,
15,instruction,survey-multi-choice,128004,male,31,english,United States of America,Right,R562203687270gxrw,,,"{""Q0"":"" To decide what caused the activation of G"",""Q1"":"" A detector becomes active if it absorbs a radioactive particle or receives input from an active detector"",""Q2"":"" G becomes active if all of its inputs are active""}",,,,,,,,,
15,instruction,causal-graph1,137132,male,31,english,United States of America,Right,R562203687270gxrw,,,,,,,,,,,,
15,chainS_R,causal-graph1,157002,male,31,english,United States of America,Right,R562203687270gxrw,1.0,16136.514999998326,,ChainS,,,,,,,,nodeB9
15,UAAS_RT,causal-graph1,175310,male,31,english,United States of America,Right,R562203687270gxrw,1.0,16137.69499999762,,AND_Gate,Unrolled,Top,Squares,Event,,A,A,nodeA7
15,UABS_RT,causal-graph1,188977,male,31,english,United States of America,Right,R562203687270gxrw,1.0,12352.725000004284,,AND_Gate,Unrolled,Top,Squares,Event,,A,B,nodeB7
15,UBBS_RT,causal-graph1,204670,male,31,english,United States of America,Right,R562203687270gxrw,1.0,14431.985000002896,,AND_Gate,Unrolled,Top,Squares,Event,,B,B,nodeB2
15,UBAS_RT,causal-graph1,229937,male,31,english,United States of America,Right,R562203687270gxrw,1.0,10488.030000000435,,AND_Gate,Unrolled,Top,Squares,Event,,B,A,nodeA25
15,UAS_RT,causal-graph1,241794,male,31,english,United States of America,Right,R562203687270gxrw,1.0,8790.294999998878,,AND_Gate,Unrolled,Top,Squares,State,A,,B,nodeB7
15,UBS_RB,causal-graph1,254126,male,31,english,United States of America,Right,R562203687270gxrw,1.0,9434.980000005451,,AND_Gate,Unrolled,Bottom,Squares,State,B,,A,nodeA20
15,instruction,causal-graph1,256335,male,31,english,United States of America,Right,R562203687270gxrw,,,,,,,,,,,,
15,comment,survey-text,257641,male,31,english,United States of America,Right,R562203687270gxrw,,1294.0699999962815,"{""Q0"":""""}",,,,,,,,,
16,instruction,causal-graph1,179443,male,29,English,United States of America,Left,R569996927840gxrw,,,,,,,,,,,,
16,instruction,causal-graph1,209964,male,29,English,United States of America,Left,R569996927840gxrw,,,,,,,,,,,,
16,instruction,causal-graph1,218693,male,29,English,United States of America,Left,R569996927840gxrw,1.0,,,,,,,,,,,
16,instruction,causal-graph1,221796,male,29,English,United States of America,Left,R569996927840gxrw,,,,,,,,,,,,
16,instruction,causal-graph1,229798,male,29,English,United States of America,Left,R569996927840gxrw,1.0,,,,,,,,,,,
16,instruction,causal-graph1,232380,male,29,English,United States of America,Left,R569996927840gxrw,,,,,,,,,,,,
16,instruction,survey-multi-choice,271197,male,29,English,United States of America,Left,R569996927840gxrw,,,"{""Q0"":"" To decide what caused the activation of G"",""Q1"":"" A detector becomes active if it absorbs a radioactive particle or receives input from an active detector"",""Q2"":"" G becomes active if at least one of its inputs is active""}",,,,,,,,,
16,instruction,causal-graph1,279910,male,29,English,United States of America,Left,R569996927840gxrw,,,,,,,,,,,,
16,instruction,causal-graph1,282556,male,29,English,United States of America,Left,R569996927840gxrw,,,,,,,,,,,,
16,instruction,causal-graph1,291145,male,29,English,United States of America,Left,R569996927840gxrw,,,,,,,,,,,,
16,instruction,causal-graph1,309686,male,29,English,United States of America,Left,R569996927840gxrw,1.0,,,,,,,,,,,
16,instruction,causal-graph1,321948,male,29,English,United States of America,Left,R569996927840gxrw,,,,,,,,,,,,
16,instruction,causal-graph1,336108,male,29,English,United States of America,Left,R569996927840gxrw,1.0,,,,,,,,,,,
16,instruction,causal-graph1,338729,male,29,English,United States of America,Left,R569996927840gxrw,,,,,,,,,,,,
16,instruction,survey-multi-choice,383819,male,29,English,United States of America,Left,R569996927840gxrw,,,"{""Q0"":"" To decide what caused the activation of G"",""Q1"":"" A detector becomes active if it absorbs a radioactive particle or receives input from an active detector"",""Q2"":"" G becomes active if all of its inputs are active""}",,,,,,,,,
16,instruction,causal-graph1,388596,male,29,English,United States of America,Left,R569996927840gxrw,,,,,,,,,,,,
16,UAS_LT,causal-graph1,415376,male,29,English,United States of America,Left,R569996927840gxrw,1.0,23548.99999999907,,AND_Gate,Unrolled,Top,Squares,State,A,,B,nodeB5
16,chainS_L,causal-graph1,436642,male,29,English,United States of America,Left,R569996927840gxrw,1.0,17388.00000003539,,ChainS,,,,,,,,nodeB9
16,UAAS_LB,causal-graph1,454579,male,29,English,United States of America,Left,R569996927840gxrw,1.0,13001.000000047496,,AND_Gate,Unrolled,Bottom,Squares,Event,,A,A,nodeA21
16,UABS_LB,causal-graph1,472571,male,29,English,United States of America,Left,R569996927840gxrw,1.0,15376.999999978581,,AND_Gate,Unrolled,Bottom,Squares,Event,,A,B,nodeB6
16,UBS_LT,causal-graph1,486083,male,29,English,United States of America,Left,R569996927840gxrw,1.0,10853.999999933876,,AND_Gate,Unrolled,Top,Squares,State,B,,A,nodeA20
16,UBBS_LB,causal-graph1,502511,male,29,English,United States of America,Left,R569996927840gxrw,1.0,12361.000000033528,,AND_Gate,Unrolled,Bottom,Squares,Event,,B,B,nodeB2
16,UBAS_LB,causal-graph1,520105,male,29,English,United States of America,Left,R569996927840gxrw,1.0,14214.999999967406,,AND_Gate,Unrolled,Bottom,Squares,Event,,B,A,nodeB4
16,instruction,causal-graph1,522874,male,29,English,United States of America,Left,R569996927840gxrw,,,,,,,,,,,,
16,comment,survey-text,526230,male,29,English,United States of America,Left,R569996927840gxrw,,3341.9999999459833,"{""Q0"":""""}",,,,,,,,,
17,instruction,causal-graph1,9110,male,34,English,United States of America,Right,R569529657850gxrw,,,,,,,,,,,,
17,instruction,causal-graph1,18649,male,34,English,United States of America,Right,R569529657850gxrw,,,,,,,,,,,,
17,instruction,causal-graph1,41661,male,34,English,United States of America,Right,R569529657850gxrw,2.0,,,,,,,,,,,
17,instruction,causal-graph1,49354,male,34,English,United States of America,Right,R569529657850gxrw,,,,,,,,,,,,
17,instruction,causal-graph1,65289,male,34,English,United States of America,Right,R569529657850gxrw,1.0,,,,,,,,,,,
17,instruction,causal-graph1,73307,male,34,English,United States of America,Right,R569529657850gxrw,,,,,,,,,,,,
17,instruction,survey-multi-choice,107708,male,34,English,United States of America,Right,R569529657850gxrw,,,"{""Q0"":"" To decide what caused the activation of each detector"",""Q1"":"" A detector becomes active if it absorbs a radioactive particle"",""Q2"":"" G becomes active if all of its inputs are active""}",,,,,,,,,
17,instruction,causal-graph1,111007,male,34,English,United States of America,Right,R569529657850gxrw,,,,,,,,,,,,
17,instruction,causal-graph1,114374,male,34,English,United States of America,Right,R569529657850gxrw,,,,,,,,,,,,
17,instruction,causal-graph1,117774,male,34,English,United States of America,Right,R569529657850gxrw,,,,,,,,,,,,
17,instruction,causal-graph1,130036,male,34,English,United States of America,Right,R569529657850gxrw,1.0,,,,,,,,,,,
17,instruction,causal-graph1,134477,male,34,English,United States of America,Right,R569529657850gxrw,,,,,,,,,,,,
17,instruction,causal-graph1,140865,male,34,English,United States of America,Right,R569529657850gxrw,1.0,,,,,,,,,,,
17,instruction,causal-graph1,142356,male,34,English,United States of America,Right,R569529657850gxrw,,,,,,,,,,,,
17,instruction,survey-multi-choice,167335,male,34,English,United States of America,Right,R569529657850gxrw,,,"{""Q0"":"" To decide what caused the activation of each detector"",""Q1"":"" A detector becomes active if it absorbs a radioactive particle"",""Q2"":"" G becomes active if all of its inputs are active""}",,,,,,,,,
17,instruction,causal-graph1,170324,male,34,English,United States of America,Right,R569529657850gxrw,,,,,,,,,,,,
17,instruction,causal-graph1,179216,male,34,English,United States of America,Right,R569529657850gxrw,,,,,,,,,,,,
17,instruction,causal-graph1,182832,male,34,English,United States of America,Right,R569529657850gxrw,,,,,,,,,,,,
17,instruction,causal-graph1,202915,male,34,English,United States of America,Right,R569529657850gxrw,1.0,,,,,,,,,,,
17,instruction,causal-graph1,210411,male,34,English,United States of America,Right,R569529657850gxrw,,,,,,,,,,,,
17,instruction,causal-graph1,215956,male,34,English,United States of America,Right,R569529657850gxrw,1.0,,,,,,,,,,,
17,instruction,causal-graph1,216830,male,34,English,United States of America,Right,R569529657850gxrw,,,,,,,,,,,,
17,instruction,survey-multi-choice,225766,male,34,English,United States of America,Right,R569529657850gxrw,,,"{""Q0"":"" To decide what caused the activation of G"",""Q1"":"" A detector becomes active if it absorbs a radioactive particle"",""Q2"":"" G becomes active if all of its inputs are active""}",,,,,,,,,
17,instruction,causal-graph1,227822,male,34,English,United States of America,Right,R569529657850gxrw,,,,,,,,,,,,
17,instruction,causal-graph1,246370,male,34,English,United States of America,Right,R569529657850gxrw,,,,,,,,,,,,
17,instruction,causal-graph1,248385,male,34,English,United States of America,Right,R569529657850gxrw,,,,,,,,,,,,
17,instruction,causal-graph1,263786,male,34,English,United States of America,Right,R569529657850gxrw,1.0,,,,,,,,,,,
17,instruction,causal-graph1,268112,male,34,English,United States of America,Right,R569529657850gxrw,,,,,,,,,,,,
17,instruction,causal-graph1,273929,male,34,English,United States of America,Right,R569529657850gxrw,1.0,,,,,,,,,,,
17,instruction,causal-graph1,281290,male,34,English,United States of America,Right,R569529657850gxrw,,,,,,,,,,,,
17,instruction,survey-multi-choice,300721,male,34,English,United States of America,Right,R569529657850gxrw,,,"{""Q0"":"" To decide what caused the activation of G"",""Q1"":"" A detector becomes active if it absorbs a radioactive particle or receives input from an active detector"",""Q2"":"" G becomes active if all of its inputs are active""}",,,,,,,,,
17,instruction,causal-graph1,303077,male,34,English,United States of America,Right,R569529657850gxrw,,,,,,,,,,,,
17,UAS_RT,causal-graph1,330926,male,34,English,United States of America,Right,R569529657850gxrw,1.0,23971.025000035297,,AND_Gate,Unrolled,Top,Squares,State,A,,B,nodeB20
17,UBS_RB,causal-graph1,349376,male,34,English,United States of America,Right,R569529657850gxrw,1.0,15645.4650000087,,AND_Gate,Unrolled,Bottom,Squares,State,B,,A,nodeA41
17,UBBS_RT,causal-graph1,374249,male,34,English,United States of America,Right,R569529657850gxrw,1.0,22442.3250000109,,AND_Gate,Unrolled,Top,Squares,Event,,B,B,nodeB19
17,UBAS_RB,causal-graph1,391946,male,34,English,United States of America,Right,R569529657850gxrw,1.0,13443.10500001302,,AND_Gate,Unrolled,Bottom,Squares,Event,,B,A,nodeA41
17,chainS_R,causal-graph1,404468,male,34,English,United States of America,Right,R569529657850gxrw,1.0,9905.214999977034,,ChainS,,,,,,,,nodeB19
17,UABS_RT,causal-graph1,741704,male,34,English,United States of America,Right,R569529657850gxrw,1.0,19189.715000044092,,AND_Gate,Unrolled,Top,Squares,Event,,A,B,nodeB19
17,UAAS_RT,causal-graph1,794267,male,34,English,United States of America,Right,R569529657850gxrw,2.0,11812.085000041408,,AND_Gate,Unrolled,Top,Squares,Event,,A,A,nodeA41
17,instruction,causal-graph1,797550,male,34,English,United States of America,Right,R569529657850gxrw,,,,,,,,,,,,
17,comment,survey-text,803562,male,34,English,United States of America,Right,R569529657850gxrw,,5984.664999996312,"{""Q0"":""""}",,,,,,,,,
18,instruction,causal-graph1,5538,male,51,ENGLISH,United States of America,Right,R565668727290gxrw,,,,,,,,,,,,
18,instruction,causal-graph1,16377,male,51,ENGLISH,United States of America,Right,R565668727290gxrw,,,,,,,,,,,,
18,instruction,causal-graph1,26737,male,51,ENGLISH,United States of America,Right,R565668727290gxrw,1.0,,,,,,,,,,,
18,instruction,causal-graph1,30077,male,51,ENGLISH,United States of America,Right,R565668727290gxrw,,,,,,,,,,,,
18,instruction,causal-graph1,39458,male,51,ENGLISH,United States of America,Right,R565668727290gxrw,1.0,,,,,,,,,,,
18,instruction,causal-graph1,42897,male,51,ENGLISH,United States of America,Right,R565668727290gxrw,,,,,,,,,,,,
18,instruction,survey-multi-choice,61782,male,51,ENGLISH,United States of America,Right,R565668727290gxrw,,,"{""Q0"":"" To decide what caused the activation of G"",""Q1"":"" A detector becomes active if it absorbs a radioactive particle"",""Q2"":"" G becomes active if it absorbs a radioactive particle""}",,,,,,,,,
18,instruction,causal-graph1,67859,male,51,ENGLISH,United States of America,Right,R565668727290gxrw,,,,,,,,,,,,
18,instruction,causal-graph1,73539,male,51,ENGLISH,United States of America,Right,R565668727290gxrw,,,,,,,,,,,,
18,instruction,causal-graph1,76308,male,51,ENGLISH,United States of America,Right,R565668727290gxrw,,,,,,,,,,,,
18,instruction,causal-graph1,82999,male,51,ENGLISH,United States of America,Right,R565668727290gxrw,1.0,,,,,,,,,,,
18,instruction,causal-graph1,85848,male,51,ENGLISH,United States of America,Right,R565668727290gxrw,,,,,,,,,,,,
18,instruction,causal-graph1,93768,male,51,ENGLISH,United States of America,Right,R565668727290gxrw,1.0,,,,,,,,,,,
18,instruction,causal-graph1,97618,male,51,ENGLISH,United States of America,Right,R565668727290gxrw,,,,,,,,,,,,
18,instruction,survey-multi-choice,111083,male,51,ENGLISH,United States of America,Right,R565668727290gxrw,,,"{""Q0"":"" To decide what caused the activation of G"",""Q1"":"" A detector becomes active if it absorbs a radioactive particle"",""Q2"":"" G becomes active if all of its inputs are active""}",,,,,,,,,
18,instruction,causal-graph1,116068,male,51,ENGLISH,United States of America,Right,R565668727290gxrw,,,,,,,,,,,,
18,instruction,causal-graph1,119918,male,51,ENGLISH,United States of America,Right,R565668727290gxrw,,,,,,,,,,,,
18,instruction,causal-graph1,123158,male,51,ENGLISH,United States of America,Right,R565668727290gxrw,,,,,,,,,,,,
18,instruction,causal-graph1,129538,male,51,ENGLISH,United States of America,Right,R565668727290gxrw,1.0,,,,,,,,,,,
18,instruction,causal-graph1,132488,male,51,ENGLISH,United States of America,Right,R565668727290gxrw,,,,,,,,,,,,
18,instruction,causal-graph1,141206,male,51,ENGLISH,United States of America,Right,R565668727290gxrw,1.0,,,,,,,,,,,
18,instruction,causal-graph1,147009,male,51,ENGLISH,United States of America,Right,R565668727290gxrw,,,,,,,,,,,,
18,instruction,survey-multi-choice,166208,male,51,ENGLISH,United States of America,Right,R565668727290gxrw,,,"{""Q0"":"" To decide what caused the activation of G"",""Q1"":"" A detector becomes active if it absorbs a radioactive particle"",""Q2"":"" G becomes active if it absorbs a radioactive particle""}",,,,,,,,,
18,instruction,causal-graph1,173108,male,51,ENGLISH,United States of America,Right,R565668727290gxrw,,,,,,,,,,,,
18,instruction,causal-graph1,176689,male,51,ENGLISH,United States of America,Right,R565668727290gxrw,,,,,,,,,,,,
18,instruction,causal-graph1,179708,male,51,ENGLISH,United States of America,Right,R565668727290gxrw,,,,,,,,,,,,
18,instruction,causal-graph1,186278,male,51,ENGLISH,United States of America,Right,R565668727290gxrw,1.0,,,,,,,,,,,
18,instruction,causal-graph1,188637,male,51,ENGLISH,United States of America,Right,R565668727290gxrw,,,,,,,,,,,,
18,instruction,causal-graph1,201108,male,51,ENGLISH,United States of America,Right,R565668727290gxrw,2.0,,,,,,,,,,,
18,instruction,causal-graph1,205228,male,51,ENGLISH,United States of America,Right,R565668727290gxrw,,,,,,,,,,,,
18,instruction,survey-multi-choice,219708,male,51,ENGLISH,United States of America,Right,R565668727290gxrw,,,"{""Q0"":"" To decide what caused the activation of G"",""Q1"":"" A detector becomes active if it absorbs a radioactive particle"",""Q2"":"" G becomes active if it absorbs a radioactive particle""}",,,,,,,,,
18,instruction,causal-graph1,258818,male,51,ENGLISH,United States of America,Right,R565668727290gxrw,,,,,,,,,,,,
18,instruction,causal-graph1,262298,male,51,ENGLISH,United States of America,Right,R565668727290gxrw,,,,,,,,,,,,
18,instruction,causal-graph1,265027,male,51,ENGLISH,United States of America,Right,R565668727290gxrw,,,,,,,,,,,,
18,instruction,causal-graph1,277649,male,51,ENGLISH,United States of America,Right,R565668727290gxrw,2.0,,,,,,,,,,,
18,instruction,causal-graph1,280049,male,51,ENGLISH,United States of America,Right,R565668727290gxrw,,,,,,,,,,,,
18,instruction,causal-graph1,292440,male,51,ENGLISH,United States of America,Right,R565668727290gxrw,1.0,,,,,,,,,,,
18,instruction,causal-graph1,295999,male,51,ENGLISH,United States of America,Right,R565668727290gxrw,,,,,,,,,,,,
18,instruction,survey-multi-choice,651453,male,51,ENGLISH,United States of America,Right,R565668727290gxrw,,,"{""Q0"":"" To decide what caused the activation of each detector"",""Q1"":"" A detector becomes active if it absorbs a radioactive particle"",""Q2"":"" G becomes active if it absorbs a radioactive particle""}",,,,,,,,,
18,instruction,causal-graph1,731818,male,51,ENGLISH,United States of America,Right,R565668727290gxrw,,,,,,,,,,,,
18,instruction,causal-graph1,746595,male,51,ENGLISH,United States of America,Right,R565668727290gxrw,,,,,,,,,,,,
18,instruction,causal-graph1,754718,male,51,ENGLISH,United States of America,Right,R565668727290gxrw,,,,,,,,,,,,
18,instruction,causal-graph1,793499,male,51,ENGLISH,United States of America,Right,R565668727290gxrw,2.0,,,,,,,,,,,
18,instruction,causal-graph1,814818,male,51,ENGLISH,United States of America,Right,R565668727290gxrw,,,,,,,,,,,,
18,instruction,causal-graph1,839528,male,51,ENGLISH,United States of America,Right,R565668727290gxrw,1.0,,,,,,,,,,,
18,instruction,causal-graph1,855039,male,51,ENGLISH,United States of America,Right,R565668727290gxrw,,,,,,,,,,,,
18,instruction,survey-multi-choice,993760,male,51,ENGLISH,United States of America,Right,R565668727290gxrw,,,"{""Q0"":"" To decide what caused the activation of G"",""Q1"":"" A detector becomes active if it absorbs a radioactive particle"",""Q2"":"" G becomes active if all of its inputs are active""}",,,,,,,,,
18,instruction,causal-graph1,998208,male,51,ENGLISH,United States of America,Right,R565668727290gxrw,,,,,,,,,,,,
18,instruction,causal-graph1,1000948,male,51,ENGLISH,United States of America,Right,R565668727290gxrw,,,,,,,,,,,,
18,instruction,causal-graph1,1003539,male,51,ENGLISH,United States of America,Right,R565668727290gxrw,,,,,,,,,,,,
18,instruction,causal-graph1,1013968,male,51,ENGLISH,United States of America,Right,R565668727290gxrw,2.0,,,,,,,,,,,
18,instruction,causal-graph1,1018398,male,51,ENGLISH,United States of America,Right,R565668727290gxrw,,,,,,,,,,,,
18,instruction,causal-graph1,1031429,male,51,ENGLISH,United States of America,Right,R565668727290gxrw,1.0,,,,,,,,,,,
18,instruction,causal-graph1,1036538,male,51,ENGLISH,United States of America,Right,R565668727290gxrw,,,,,,,,,,,,
18,instruction,survey-multi-choice,1140018,male,51,ENGLISH,United States of America,Right,R565668727290gxrw,,,"{""Q0"":"" To decide what caused the activation of G"",""Q1"":"" A detector becomes active if it absorbs a radioactive particle"",""Q2"":"" G becomes active if all of its inputs are active""}",,,,,,,,,
18,instruction,causal-graph1,1145328,male,51,ENGLISH,United States of America,Right,R565668727290gxrw,,,,,,,,,,,,
18,instruction,causal-graph1,1148788,male,51,ENGLISH,United States of America,Right,R565668727290gxrw,,,,,,,,,,,,
18,instruction,causal-graph1,1151657,male,51,ENGLISH,United States of America,Right,R565668727290gxrw,,,,,,,,,,,,
18,instruction,causal-graph1,1157929,male,51,ENGLISH,United States of America,Right,R565668727290gxrw,1.0,,,,,,,,,,,
18,instruction,causal-graph1,1160338,male,51,ENGLISH,United States of America,Right,R565668727290gxrw,,,,,,,,,,,,
18,instruction,causal-graph1,1172777,male,51,ENGLISH,United States of America,Right,R565668727290gxrw,1.0,,,,,,,,,,,
18,instruction,causal-graph1,1175787,male,51,ENGLISH,United States of America,Right,R565668727290gxrw,,,,,,,,,,,,
18,instruction,survey-multi-choice,1261658,male,51,ENGLISH,United States of America,Right,R565668727290gxrw,,,"{""Q0"":"" To decide what caused the activation of G"",""Q1"":"" A detector becomes active if it absorbs a radioactive particle or receives input from an active detector"",""Q2"":"" G becomes active if all of its inputs are active""}",,,,,,,,,
18,instruction,causal-graph1,1276488,male,51,ENGLISH,United States of America,Right,R565668727290gxrw,,,,,,,,,,,,
18,UBS_RT,causal-graph1,1339149,male,51,ENGLISH,United States of America,Right,R565668727290gxrw,1.0,54734.99999986962,,AND_Gate,Unrolled,Top,Squares,State,B,,A,nodeB20
18,UAAS_RT,causal-graph1,1355828,male,51,ENGLISH,United States of America,Right,R565668727290gxrw,1.0,12121.999999973923,,AND_Gate,Unrolled,Top,Squares,Event,,A,A,nodeA6
18,UAS_RT,causal-graph1,1373609,male,51,ENGLISH,United States of America,Right,R565668727290gxrw,1.0,14486.999999731783,,AND_Gate,Unrolled,Top,Squares,State,A,,B,nodeB6
18,UBAS_RT,causal-graph1,1399010,male,51,ENGLISH,United States of America,Right,R565668727290gxrw,1.0,14543.00000006333,,AND_Gate,Unrolled,Top,Squares,Event,,B,A,nodeA24
18,UBBS_RT,causal-graph1,1412529,male,51,ENGLISH,United States of America,Right,R565668727290gxrw,1.0,10123.999999836087,,AND_Gate,Unrolled,Top,Squares,Event,,B,B,nodeB1
18,UABS_RT,causal-graph1,1432749,male,51,ENGLISH,United States of America,Right,R565668727290gxrw,1.0,15183.999999891968,,AND_Gate,Unrolled,Top,Squares,Event,,A,B,nodeA6
18,chainS_R,causal-graph1,1451000,male,51,ENGLISH,United States of America,Right,R565668727290gxrw,1.0,14245.00000011176,,ChainS,,,,,,,,nodeB8
18,instruction,causal-graph1,1454878,male,51,ENGLISH,United States of America,Right,R565668727290gxrw,,,,,,,,,,,,
18,comment,survey-text,1465910,male,51,ENGLISH,United States of America,Right,R565668727290gxrw,,10998.000000137838,"{""Q0"":""VERY NICE                                  ""}",,,,,,,,,
19,instruction,causal-graph1,8420,female,39,English,United States of America,Right,R563804007140gxrw,,,,,,,,,,,,
19,instruction,causal-graph1,19030,female,39,English,United States of America,Right,R563804007140gxrw,,,,,,,,,,,,
19,instruction,causal-graph1,55520,female,39,English,United States of America,Right,R563804007140gxrw,2.0,,,,,,,,,,,
19,instruction,causal-graph1,65786,female,39,English,United States of America,Right,R563804007140gxrw,,,,,,,,,,,,
19,instruction,causal-graph1,86802,female,39,English,United States of America,Right,R563804007140gxrw,1.0,,,,,,,,,,,
19,instruction,causal-graph1,101196,female,39,English,United States of America,Right,R563804007140gxrw,,,,,,,,,,,,
19,instruction,survey-multi-choice,161722,female,39,English,United States of America,Right,R563804007140gxrw,,,"{""Q0"":"" To decide what caused the activation of G"",""Q1"":"" A detector becomes active if it absorbs a radioactive particle"",""Q2"":"" G becomes active if all of its inputs are active""}",,,,,,,,,
19,instruction,causal-graph1,165024,female,39,English,United States of America,Right,R563804007140gxrw,,,,,,,,,,,,
19,instruction,causal-graph1,168250,female,39,English,United States of America,Right,R563804007140gxrw,,,,,,,,,,,,
19,instruction,causal-graph1,173086,female,39,English,United States of America,Right,R563804007140gxrw,,,,,,,,,,,,
19,instruction,causal-graph1,188696,female,39,English,United States of America,Right,R563804007140gxrw,1.0,,,,,,,,,,,
19,instruction,causal-graph1,208227,female,39,English,United States of America,Right,R563804007140gxrw,,,,,,,,,,,,
19,instruction,causal-graph1,219492,female,39,English,United States of America,Right,R563804007140gxrw,1.0,,,,,,,,,,,
19,instruction,causal-graph1,228815,female,39,English,United States of America,Right,R563804007140gxrw,,,,,,,,,,,,
19,instruction,survey-multi-choice,296691,female,39,English,United States of America,Right,R563804007140gxrw,,,"{""Q0"":"" To decide what caused the activation of G"",""Q1"":"" A detector becomes active if it absorbs a radioactive particle or receives input from an active detector"",""Q2"":"" G becomes active if all of its inputs are active""}",,,,,,,,,
19,instruction,causal-graph1,299225,female,39,English,United States of America,Right,R563804007140gxrw,,,,,,,,,,,,
19,UBAS_RT,causal-graph1,348552,female,39,English,United States of America,Right,R563804007140gxrw,2.0,13858.704999998736,,AND_Gate,Unrolled,Top,Squares,Event,,B,A,nodeA41
19,chainS_R,causal-graph1,365090,female,39,English,United States of America,Right,R563804007140gxrw,1.0,12541.605000000329,,ChainS,,,,,,,,nodeB9
19,UAS_RT,causal-graph1,388169,female,39,English,United States of America,Right,R563804007140gxrw,1.0,17908.70499999984,,AND_Gate,Unrolled,Top,Squares,State,A,,B,nodeB7
19,UAAS_RB,causal-graph1,407011,female,39,English,United States of America,Right,R563804007140gxrw,1.0,16267.424999999932,,AND_Gate,Unrolled,Bottom,Squares,Event,,A,A,nodeA7
19,UBBS_RB,causal-graph1,423893,female,39,English,United States of America,Right,R563804007140gxrw,1.0,14853.370000000694,,AND_Gate,Unrolled,Bottom,Squares,Event,,B,B,nodeB2
19,UABS_RB,causal-graph1,437792,female,39,English,United States of America,Right,R563804007140gxrw,1.0,12191.42500000086,,AND_Gate,Unrolled,Bottom,Squares,Event,,A,B,nodeB7
19,UBS_RT,causal-graph1,451519,female,39,English,United States of America,Right,R563804007140gxrw,1.0,11563.229999999749,,AND_Gate,Unrolled,Top,Squares,State,B,,A,nodeA20
19,instruction,causal-graph1,455767,female,39,English,United States of America,Right,R563804007140gxrw,,,,,,,,,,,,
19,comment,survey-text,463362,female,39,English,United States of America,Right,R563804007140gxrw,,7467.824999999721,"{""Q0"":""""}",,,,,,,,,
20,instruction,causal-graph1,9582,male,33,English,United States of America,Right,R562739977950gxrw,,,,,,,,,,,,
20,instruction,causal-graph1,18614,male,33,English,United States of America,Right,R562739977950gxrw,,,,,,,,,,,,
20,instruction,causal-graph1,40354,male,33,English,United States of America,Right,R562739977950gxrw,2.0,,,,,,,,,,,
20,instruction,causal-graph1,49604,male,33,English,United States of America,Right,R562739977950gxrw,,,,,,,,,,,,
20,instruction,causal-graph1,85044,male,33,English,United States of America,Right,R562739977950gxrw,1.0,,,,,,,,,,,
20,instruction,causal-graph1,102332,male,33,English,United States of America,Right,R562739977950gxrw,,,,,,,,,,,,
20,instruction,survey-multi-choice,142252,male,33,English,United States of America,Right,R562739977950gxrw,,,"{""Q0"":"" To decide what caused the activation of G"",""Q1"":"" A detector becomes active if it absorbs a radioactive particle"",""Q2"":"" G becomes active if all of its inputs are active""}",,,,,,,,,
20,instruction,causal-graph1,145792,male,33,English,United States of America,Right,R562739977950gxrw,,,,,,,,,,,,
20,instruction,causal-graph1,148243,male,33,English,United States of America,Right,R562739977950gxrw,,,,,,,,,,,,
20,instruction,causal-graph1,151935,male,33,English,United States of America,Right,R562739977950gxrw,,,,,,,,,,,,
20,instruction,causal-graph1,171255,male,33,English,United States of America,Right,R562739977950gxrw,1.0,,,,,,,,,,,
20,instruction,causal-graph1,191722,male,33,English,United States of America,Right,R562739977950gxrw,,,,,,,,,,,,
20,instruction,causal-graph1,210757,male,33,English,United States of America,Right,R562739977950gxrw,1.0,,,,,,,,,,,
20,instruction,causal-graph1,235105,male,33,English,United States of America,Right,R562739977950gxrw,,,,,,,,,,,,
20,instruction,survey-multi-choice,266491,male,33,English,United States of America,Right,R562739977950gxrw,,,"{""Q0"":"" To decide what caused the activation of G"",""Q1"":"" A detector becomes active if it absorbs a radioactive particle or receives input from an active detector"",""Q2"":"" G becomes active if all of its inputs are active""}",,,,,,,,,
20,instruction,causal-graph1,269793,male,33,English,United States of America,Right,R562739977950gxrw,,,,,,,,,,,,
20,UBS_RB,causal-graph1,287925,male,33,English,United States of America,Right,R562739977950gxrw,1.0,15327.219999977387,,AND_Gate,Unrolled,Bottom,Squares,State,B,,A,nodeA20
20,UBBS_RT,causal-graph1,312518,male,33,English,United States of America,Right,R562739977950gxrw,1.0,21884.61499998812,,AND_Gate,Unrolled,Top,Squares,Event,,B,B,nodeB2
20,UBAS_RT,causal-graph1,327844,male,33,English,United States of America,Right,R562739977950gxrw,1.0,13079.11500002956,,AND_Gate,Unrolled,Top,Squares,Event,,B,A,nodeA25
20,UABS_RT,causal-graph1,407381,male,33,English,United States of America,Right,R562739977950gxrw,1.0,13363.260000012815,,AND_Gate,Unrolled,Top,Squares,Event,,A,B,nodeB7
20,UAS_RB,causal-graph1,419883,male,33,English,United States of America,Right,R562739977950gxrw,1.0,9842.609999992419,,AND_Gate,Unrolled,Bottom,Squares,State,A,,B,nodeB7
20,UAAS_RT,causal-graph1,434803,male,33,English,United States of America,Right,R562739977950gxrw,1.0,11744.305000000168,,AND_Gate,Unrolled,Top,Squares,Event,,A,A,nodeB7
20,chainS_R,causal-graph1,446383,male,33,English,United States of America,Right,R562739977950gxrw,1.0,9162.454999983309,,ChainS,,,,,,,,nodeB9
20,instruction,causal-graph1,449199,male,33,English,United States of America,Right,R562739977950gxrw,,,,,,,,,,,,
20,comment,survey-text,451753,male,33,English,United States of America,Right,R562739977950gxrw,,1895.699999993667,"{""Q0"":""""}",,,,,,,,,
21,instruction,causal-graph1,8388,female,62,english,United States of America,Left,R562595927890gxrw,,,,,,,,,,,,
21,instruction,causal-graph1,15526,female,62,english,United States of America,Left,R562595927890gxrw,,,,,,,,,,,,
21,instruction,causal-graph1,40378,female,62,english,United States of America,Left,R562595927890gxrw,2.0,,,,,,,,,,,
21,instruction,causal-graph1,53665,female,62,english,United States of America,Left,R562595927890gxrw,,,,,,,,,,,,
21,instruction,causal-graph1,74368,female,62,english,United States of America,Left,R562595927890gxrw,1.0,,,,,,,,,,,
21,instruction,causal-graph1,89258,female,62,english,United States of America,Left,R562595927890gxrw,,,,,,,,,,,,
21,instruction,survey-multi-choice,119399,female,62,english,United States of America,Left,R562595927890gxrw,,,"{""Q0"":"" To decide what caused the activation of G"",""Q1"":"" A detector becomes active if it absorbs a radioactive particle or receives input from an active detector"",""Q2"":"" G becomes active if all of its inputs are active""}",,,,,,,,,
21,instruction,causal-graph1,121860,female,62,english,United States of America,Left,R562595927890gxrw,,,,,,,,,,,,
21,UBAS_LT,causal-graph1,160586,female,62,english,United States of America,Left,R562595927890gxrw,2.0,13536.169999999402,,AND_Gate,Unrolled,Top,Squares,Event,,B,A,nodeA41
21,UBS_LB,causal-graph1,179447,female,62,english,United States of America,Left,R562595927890gxrw,1.0,13447.149999999963,,AND_Gate,Unrolled,Bottom,Squares,State,B,,A,nodeA41
21,UABS_LB,causal-graph1,203198,female,62,english,United States of America,Left,R562595927890gxrw,1.0,19503.78500000079,,AND_Gate,Unrolled,Bottom,Squares,Event,,A,B,nodeB19
21,UBBS_LT,causal-graph1,216368,female,62,english,United States of America,Left,R562595927890gxrw,1.0,11017.534999999043,,AND_Gate,Unrolled,Top,Squares,Event,,B,B,nodeB19
21,chainS_L,causal-graph1,231244,female,62,english,United States of America,Left,R562595927890gxrw,1.0,12014.864999997373,,ChainS,,,,,,,,nodeB19
21,UAAS_LT,causal-graph1,247594,female,62,english,United States of America,Left,R562595927890gxrw,1.0,13258.28000000183,,AND_Gate,Unrolled,Top,Squares,Event,,A,A,nodeA41
21,UAS_LB,causal-graph1,261508,female,62,english,United States of America,Left,R562595927890gxrw,1.0,11263.570000002801,,AND_Gate,Unrolled,Bottom,Squares,State,A,,B,nodeB19
21,instruction,causal-graph1,263755,female,62,english,United States of America,Left,R562595927890gxrw,,,,,,,,,,,,
21,comment,survey-text,268681,female,62,english,United States of America,Left,R562595927890gxrw,,4919.934999998077,"{""Q0"":""""}",,,,,,,,,
22,instruction,causal-graph1,6493,female,42,American English,United States of America,Left,R566602567600gxrw,,,,,,,,,,,,
22,instruction,causal-graph1,14059,female,42,American English,United States of America,Left,R566602567600gxrw,,,,,,,,,,,,
22,instruction,causal-graph1,30575,female,42,American English,United States of America,Left,R566602567600gxrw,1.0,,,,,,,,,,,
22,instruction,causal-graph1,40775,female,42,American English,United States of America,Left,R566602567600gxrw,,,,,,,,,,,,
22,instruction,causal-graph1,68531,female,42,American English,United States of America,Left,R566602567600gxrw,1.0,,,,,,,,,,,
22,instruction,causal-graph1,83388,female,42,American English,United States of America,Left,R566602567600gxrw,,,,,,,,,,,,
22,instruction,survey-multi-choice,110121,female,42,American English,United States of America,Left,R566602567600gxrw,,,"{""Q0"":"" To decide what caused the activation of G"",""Q1"":"" A detector becomes active if it absorbs a radioactive particle or receives input from an active detector"",""Q2"":"" G becomes active if all of its inputs are active""}",,,,,,,,,
22,instruction,causal-graph1,113858,female,42,American English,United States of America,Left,R566602567600gxrw,,,,,,,,,,,,
22,UBAS_LT,causal-graph1,136771,female,42,American English,United States of America,Left,R566602567600gxrw,1.0,19649.81999999145,,AND_Gate,Unrolled,Top,Squares,Event,,B,A,nodeB4
22,UAAS_LT,causal-graph1,150388,female,42,American English,United States of America,Left,R566602567600gxrw,1.0,10996.175000007495,,AND_Gate,Unrolled,Top,Squares,Event,,A,A,nodeA7
22,UAS_LT,causal-graph1,174175,female,42,American English,United States of America,Left,R566602567600gxrw,2.0,9268.754999997327,,AND_Gate,Unrolled,Top,Squares,State,A,,B,nodeA7
22,chainS_L,causal-graph1,186517,female,42,American English,United States of America,Left,R566602567600gxrw,1.0,9053.295000019716,,ChainS,,,,,,,,nodeB9
22,UBBS_LB,causal-graph1,199565,female,42,American English,United States of America,Left,R566602567600gxrw,1.0,11072.829999990063,,AND_Gate,Unrolled,Bottom,Squares,Event,,B,B,nodeB2
22,UABS_LT,causal-graph1,223730,female,42,American English,United States of America,Left,R566602567600gxrw,1.0,20913.814999978058,,AND_Gate,Unrolled,Top,Squares,Event,,A,B,nodeA7
22,UBS_LB,causal-graph1,236193,female,42,American English,United States of America,Left,R566602567600gxrw,1.0,10792.799999995625,,AND_Gate,Unrolled,Bottom,Squares,State,B,,A,nodeB4
22,instruction,causal-graph1,238995,female,42,American English,United States of America,Left,R566602567600gxrw,,,,,,,,,,,,
22,comment,survey-text,242288,female,42,American English,United States of America,Left,R566602567600gxrw,,3281.4500000094995,"{""Q0"":""""}",,,,,,,,,
23,instruction,causal-graph1,34582,female,26,english,United States of America,Right,R561847387520gxrw,,,,,,,,,,,,
23,instruction,causal-graph1,38092,female,26,english,United States of America,Right,R561847387520gxrw,,,,,,,,,,,,
23,instruction,causal-graph1,53732,female,26,english,United States of America,Right,R561847387520gxrw,2.0,,,,,,,,,,,
23,instruction,causal-graph1,57995,female,26,english,United States of America,Right,R561847387520gxrw,,,,,,,,,,,,
23,instruction,causal-graph1,73419,female,26,english,United States of America,Right,R561847387520gxrw,1.0,,,,,,,,,,,
23,instruction,causal-graph1,77584,female,26,english,United States of America,Right,R561847387520gxrw,,,,,,,,,,,,
23,instruction,survey-multi-choice,113240,female,26,english,United States of America,Right,R561847387520gxrw,,,"{""Q0"":"" To find out if the Gauge of Critical Moment (G) is activated or not"",""Q1"":"" A detector becomes active if it absorbs a radioactive particle or receives input from an active detector"",""Q2"":"" G becomes active if all of its inputs are active""}",,,,,,,,,
23,instruction,causal-graph1,115864,female,26,english,United States of America,Right,R561847387520gxrw,,,,,,,,,,,,
23,instruction,causal-graph1,117144,female,26,english,United States of America,Right,R561847387520gxrw,,,,,,,,,,,,
23,instruction,causal-graph1,119965,female,26,english,United States of America,Right,R561847387520gxrw,,,,,,,,,,,,
23,instruction,causal-graph1,135155,female,26,english,United States of America,Right,R561847387520gxrw,1.0,,,,,,,,,,,
23,instruction,causal-graph1,151784,female,26,english,United States of America,Right,R561847387520gxrw,,,,,,,,,,,,
23,instruction,causal-graph1,166501,female,26,english,United States of America,Right,R561847387520gxrw,1.0,,,,,,,,,,,
23,instruction,causal-graph1,168589,female,26,english,United States of America,Right,R561847387520gxrw,,,,,,,,,,,,
23,instruction,survey-multi-choice,220047,female,26,english,United States of America,Right,R561847387520gxrw,,,"{""Q0"":"" To decide what caused the activation of G"",""Q1"":"" A detector becomes active if it absorbs a radioactive particle or receives input from an active detector"",""Q2"":"" G becomes active if all of its inputs are active""}",,,,,,,,,
23,instruction,causal-graph1,223577,female,26,english,United States of America,Right,R561847387520gxrw,,,,,,,,,,,,
23,UBAS_RT,causal-graph1,265954,female,26,english,United States of America,Right,R561847387520gxrw,3.0,13964.264999958688,,AND_Gate,Unrolled,Top,Squares,Event,,B,A,nodeA25
23,UAS_RB,causal-graph1,280062,female,26,english,United States of America,Right,R561847387520gxrw,1.0,10705.445000086911,,AND_Gate,Unrolled,Bottom,Squares,State,A,,B,nodeB7
23,UABS_RT,causal-graph1,298251,female,26,english,United States of America,Right,R561847387520gxrw,1.0,16239.494999987073,,AND_Gate,Unrolled,Top,Squares,Event,,A,B,nodeA40
23,chainS_R,causal-graph1,321912,female,26,english,United States of America,Right,R561847387520gxrw,1.0,8842.204999993555,,ChainS,,,,,,,,nodeB9
23,UAAS_RT,causal-graph1,334535,female,26,english,United States of America,Right,R561847387520gxrw,1.0,11127.890000003392,,AND_Gate,Unrolled,Top,Squares,Event,,A,A,nodeA22
23,UBS_RB,causal-graph1,346462,female,26,english,United States of America,Right,R561847387520gxrw,1.0,10326.890000025742,,AND_Gate,Unrolled,Bottom,Squares,State,B,,A,nodeA20
23,UBBS_RT,causal-graph1,376964,female,26,english,United States of America,Right,R561847387520gxrw,2.0,9008.590000099504,,AND_Gate,Unrolled,Top,Squares,Event,,B,B,nodeB10
23,instruction,causal-graph1,378733,female,26,english,United States of America,Right,R561847387520gxrw,,,,,,,,,,,,
23,comment,survey-text,390743,female,26,english,United States of America,Right,R561847387520gxrw,,12002.689999993892,"{""Q0"":""everything worked well, no issues""}",,,,,,,,,
24,instruction,causal-graph1,9000,female,37,English,United States of America,Left,R562384867510gxrw,,,,,,,,,,,,
24,instruction,causal-graph1,18243,female,37,English,United States of America,Left,R562384867510gxrw,,,,,,,,,,,,
24,instruction,causal-graph1,40406,female,37,English,United States of America,Left,R562384867510gxrw,1.0,,,,,,,,,,,
24,instruction,causal-graph1,56065,female,37,English,United States of America,Left,R562384867510gxrw,,,,,,,,,,,,
24,instruction,causal-graph1,83212,female,37,English,United States of America,Left,R562384867510gxrw,1.0,,,,,,,,,,,
24,instruction,causal-graph1,97511,female,37,English,United States of America,Left,R562384867510gxrw,,,,,,,,,,,,
24,instruction,survey-multi-choice,209700,female,37,English,United States of America,Left,R562384867510gxrw,,,"{""Q0"":"" To decide what caused the activation of G"",""Q1"":"" A detector becomes active if it absorbs a radioactive particle"",""Q2"":"" G becomes active if all of its inputs are active""}",,,,,,,,,
24,instruction,causal-graph1,213460,female,37,English,United States of America,Left,R562384867510gxrw,,,,,,,,,,,,
24,instruction,causal-graph1,220095,female,37,English,United States of America,Left,R562384867510gxrw,,,,,,,,,,,,
24,instruction,causal-graph1,226203,female,37,English,United States of America,Left,R562384867510gxrw,,,,,,,,,,,,
24,instruction,causal-graph1,265319,female,37,English,United States of America,Left,R562384867510gxrw,1.0,,,,,,,,,,,
24,instruction,causal-graph1,284638,female,37,English,United States of America,Left,R562384867510gxrw,,,,,,,,,,,,
24,instruction,causal-graph1,305646,female,37,English,United States of America,Left,R562384867510gxrw,2.0,,,,,,,,,,,
24,instruction,causal-graph1,316415,female,37,English,United States of America,Left,R562384867510gxrw,,,,,,,,,,,,
24,instruction,survey-multi-choice,355758,female,37,English,United States of America,Left,R562384867510gxrw,,,"{""Q0"":"" To decide what caused the activation of each detector"",""Q1"":"" A detector becomes active if it absorbs a radioactive particle"",""Q2"":"" G becomes active if all of its inputs are active""}",,,,,,,,,
24,instruction,causal-graph1,357853,female,37,English,United States of America,Left,R562384867510gxrw,,,,,,,,,,,,
24,instruction,causal-graph1,359493,female,37,English,United States of America,Left,R562384867510gxrw,,,,,,,,,,,,
24,instruction,causal-graph1,360798,female,37,English,United States of America,Left,R562384867510gxrw,,,,,,,,,,,,
24,instruction,causal-graph1,365640,female,37,English,United States of America,Left,R562384867510gxrw,1.0,,,,,,,,,,,
24,instruction,causal-graph1,367099,female,37,English,United States of America,Left,R562384867510gxrw,,,,,,,,,,,,
24,instruction,causal-graph1,378035,female,37,English,United States of America,Left,R562384867510gxrw,1.0,,,,,,,,,,,
24,instruction,causal-graph1,379958,female,37,English,United States of America,Left,R562384867510gxrw,,,,,,,,,,,,
24,instruction,survey-multi-choice,420327,female,37,English,United States of America,Left,R562384867510gxrw,,,"{""Q0"":"" To decide what caused the activation of G"",""Q1"":"" A detector becomes active if it absorbs a radioactive particle or receives input from an active detector"",""Q2"":"" G becomes active if all of its inputs are active""}",,,,,,,,,
24,instruction,causal-graph1,423470,female,37,English,United States of America,Left,R562384867510gxrw,,,,,,,,,,,,
24,chainS_L,causal-graph1,461179,female,37,English,United States of America,Left,R562384867510gxrw,1.0,33827.78500003042,,ChainS,,,,,,,,nodeB19
24,UBAS_LT,causal-graph1,503175,female,37,English,United States of America,Left,R562384867510gxrw,1.0,37181.70999997528,,AND_Gate,Unrolled,Top,Squares,Event,,B,A,nodeA41
24,UBBS_LT,causal-graph1,516107,female,37,English,United States of America,Left,R562384867510gxrw,1.0,10591.709999949671,,AND_Gate,Unrolled,Top,Squares,Event,,B,B,nodeB19
24,UAAS_LB,causal-graph1,529942,female,37,English,United States of America,Left,R562384867510gxrw,1.0,11574.3449999718,,AND_Gate,Unrolled,Bottom,Squares,Event,,A,A,nodeA41
24,UBS_LT,causal-graph1,545487,female,37,English,United States of America,Left,R562384867510gxrw,1.0,13007.92000000365,,AND_Gate,Unrolled,Top,Squares,State,B,,A,nodeA41
24,UABS_LB,causal-graph1,561940,female,37,English,United States of America,Left,R562384867510gxrw,1.0,14281.214999966323,,AND_Gate,Unrolled,Bottom,Squares,Event,,A,B,nodeB19
24,UAS_LB,causal-graph1,574375,female,37,English,United States of America,Left,R562384867510gxrw,1.0,10425.634999992326,,AND_Gate,Unrolled,Bottom,Squares,State,A,,B,nodeB19
24,instruction,causal-graph1,577566,female,37,English,United States of America,Left,R562384867510gxrw,,,,,,,,,,,,
24,comment,survey-text,582420,female,37,English,United States of America,Left,R562384867510gxrw,,4796.220000018366,"{""Q0"":""""}",,,,,,,,,
25,instruction,causal-graph1,9266,male,65,English,United States of America,Right,R562382347220gxrw,,,,,,,,,,,,
25,instruction,causal-graph1,12344,male,65,English,United States of America,Right,R562382347220gxrw,,,,,,,,,,,,
25,instruction,causal-graph1,19155,male,65,English,United States of America,Right,R562382347220gxrw,1.0,,,,,,,,,,,
25,instruction,causal-graph1,20260,male,65,English,United States of America,Right,R562382347220gxrw,,,,,,,,,,,,
25,instruction,causal-graph1,26905,male,65,English,United States of America,Right,R562382347220gxrw,1.0,,,,,,,,,,,
25,instruction,causal-graph1,30666,male,65,English,United States of America,Right,R562382347220gxrw,,,,,,,,,,,,
25,instruction,survey-multi-choice,69509,male,65,English,United States of America,Right,R562382347220gxrw,,,"{""Q0"":"" To decide what caused the activation of G"",""Q1"":"" A detector becomes active if it absorbs a radioactive particle or receives input from an active detector"",""Q2"":"" G becomes active if all of its inputs are active""}",,,,,,,,,
25,instruction,causal-graph1,72384,male,65,English,United States of America,Right,R562382347220gxrw,,,,,,,,,,,,
25,UBBS_RB,causal-graph1,87885,male,65,English,United States of America,Right,R562382347220gxrw,1.0,14008.025000002815,,AND_Gate,Unrolled,Bottom,Squares,Event,,B,B,nodeB19
25,UABS_RT,causal-graph1,101361,male,65,English,United States of America,Right,R562382347220gxrw,1.0,12416.434999999185,,AND_Gate,Unrolled,Top,Squares,Event,,A,B,nodeB19
25,UBAS_RB,causal-graph1,115962,male,65,English,United States of America,Right,R562382347220gxrw,1.0,13542.789999999512,,AND_Gate,Unrolled,Bottom,Squares,Event,,B,A,nodeA41
25,UAS_RB,causal-graph1,126695,male,65,English,United States of America,Right,R562382347220gxrw,1.0,9546.360000000275,,AND_Gate,Unrolled,Bottom,Squares,State,A,,B,nodeB19
25,UAAS_RT,causal-graph1,139246,male,65,English,United States of America,Right,R562382347220gxrw,1.0,11389.474999996308,,AND_Gate,Unrolled,Top,Squares,Event,,A,A,nodeA41
25,chainS_R,causal-graph1,150090,male,65,English,United States of America,Right,R562382347220gxrw,1.0,9335.815000005823,,ChainS,,,,,,,,nodeB19
25,UBS_RB,causal-graph1,161543,male,65,English,United States of America,Right,R562382347220gxrw,1.0,9848.815000004834,,AND_Gate,Unrolled,Bottom,Squares,State,B,,A,nodeA41
25,instruction,causal-graph1,164268,male,65,English,United States of America,Right,R562382347220gxrw,,,,,,,,,,,,
25,comment,survey-text,167039,male,65,English,United States of America,Right,R562382347220gxrw,,2765.5400000003283,"{""Q0"":""""}",,,,,,,,,
26,instruction,causal-graph1,7944,female,32,english,United States of America,Right,R564913177240gxrw,,,,,,,,,,,,
26,instruction,causal-graph1,12849,female,32,english,United States of America,Right,R564913177240gxrw,,,,,,,,,,,,
26,instruction,causal-graph1,23630,female,32,english,United States of America,Right,R564913177240gxrw,1.0,,,,,,,,,,,
26,instruction,causal-graph1,28234,female,32,english,United States of America,Right,R564913177240gxrw,,,,,,,,,,,,
26,instruction,causal-graph1,41215,female,32,english,United States of America,Right,R564913177240gxrw,1.0,,,,,,,,,,,
26,instruction,causal-graph1,47511,female,32,english,United States of America,Right,R564913177240gxrw,,,,,,,,,,,,
26,instruction,survey-multi-choice,63112,female,32,english,United States of America,Right,R564913177240gxrw,,,"{""Q0"":"" To decide what caused the activation of G"",""Q1"":"" A detector becomes active if it receives input from an active detector"",""Q2"":"" G becomes active if all of its inputs are active""}",,,,,,,,,
26,instruction,causal-graph1,65785,female,32,english,United States of America,Right,R564913177240gxrw,,,,,,,,,,,,
26,instruction,causal-graph1,67635,female,32,english,United States of America,Right,R564913177240gxrw,,,,,,,,,,,,
26,instruction,causal-graph1,70830,female,32,english,United States of America,Right,R564913177240gxrw,,,,,,,,,,,,
26,instruction,causal-graph1,86633,female,32,english,United States of America,Right,R564913177240gxrw,1.0,,,,,,,,,,,
26,instruction,causal-graph1,92836,female,32,english,United States of America,Right,R564913177240gxrw,,,,,,,,,,,,
26,instruction,causal-graph1,102200,female,32,english,United States of America,Right,R564913177240gxrw,1.0,,,,,,,,,,,
26,instruction,causal-graph1,107681,female,32,english,United States of America,Right,R564913177240gxrw,,,,,,,,,,,,
26,instruction,survey-multi-choice,152285,female,32,english,United States of America,Right,R564913177240gxrw,,,"{""Q0"":"" To decide what caused the activation of G"",""Q1"":"" A detector becomes active if it absorbs a radioactive particle or receives input from an active detector"",""Q2"":"" G becomes active if all of its inputs are active""}",,,,,,,,,
26,instruction,causal-graph1,154691,female,32,english,United States of America,Right,R564913177240gxrw,,,,,,,,,,,,
26,UABS_RB,causal-graph1,188412,female,32,english,United States of America,Right,R564913177240gxrw,2.0,19554.999999934807,,AND_Gate,Unrolled,Bottom,Squares,Event,,A,B,nodeA40
26,UBBS_RT,causal-graph1,209593,female,32,english,United States of America,Right,R564913177240gxrw,2.0,10283.9999999851,,AND_Gate,Unrolled,Top,Squares,Event,,B,B,nodeB8
26,UBAS_RB,causal-graph1,222517,female,32,english,United States of America,Right,R564913177240gxrw,1.0,10677.999999839813,,AND_Gate,Unrolled,Bottom,Squares,Event,,B,A,nodeB14
26,UAAS_RT,causal-graph1,240559,female,32,english,United States of America,Right,R564913177240gxrw,1.0,11794.999999925492,,AND_Gate,Unrolled,Top,Squares,Event,,A,A,nodeA19
26,chainS_R,causal-graph1,251485,female,32,english,United States of America,Right,R564913177240gxrw,1.0,8918.999999994412,,ChainS,,,,,,,,nodeB9
26,UBS_RT,causal-graph1,263820,female,32,english,United States of America,Right,R564913177240gxrw,1.0,10253.99999995716,,AND_Gate,Unrolled,Top,Squares,State,B,,A,nodeA20
26,UAS_RB,causal-graph1,275408,female,32,english,United States of America,Right,R564913177240gxrw,1.0,9327.000000048427,,AND_Gate,Unrolled,Bottom,Squares,State,A,,B,nodeB7
26,instruction,causal-graph1,277350,female,32,english,United States of America,Right,R564913177240gxrw,,,,,,,,,,,,
26,comment,survey-text,280852,female,32,english,United States of America,Right,R564913177240gxrw,,3482.0000000763685,"{""Q0"":""""}",,,,,,,,,
27,instruction,causal-graph1,31512,female,48,english,United States of America,Left,R565972457960gxrw,,,,,,,,,,,,
27,instruction,causal-graph1,38573,female,48,english,United States of America,Left,R565972457960gxrw,,,,,,,,,,,,
27,instruction,causal-graph1,63094,female,48,english,United States of America,Left,R565972457960gxrw,1.0,,,,,,,,,,,
27,instruction,causal-graph1,87131,female,48,english,United States of America,Left,R565972457960gxrw,,,,,,,,,,,,
27,instruction,causal-graph1,116763,female,48,english,United States of America,Left,R565972457960gxrw,1.0,,,,,,,,,,,
27,instruction,causal-graph1,126417,female,48,english,United States of America,Left,R565972457960gxrw,,,,,,,,,,,,
27,instruction,survey-multi-choice,149290,female,48,english,United States of America,Left,R565972457960gxrw,,,"{""Q0"":"" To decide what caused the activation of G"",""Q1"":"" A detector becomes active if it absorbs a radioactive particle or receives input from an active detector"",""Q2"":"" G becomes active if at least one of its inputs is active""}",,,,,,,,,
27,instruction,causal-graph1,153581,female,48,english,United States of America,Left,R565972457960gxrw,,,,,,,,,,,,
